sep=;
ACCELEROMETER X (m/s²);ACCELEROMETER Y (m/s²);ACCELEROMETER Z (m/s²);GRAVITY X (m/s²);GRAVITY Y (m/s²);GRAVITY Z (m/s²);LINEAR ACCELERATION X (m/s²);LINEAR ACCELERATION Y (m/s²);LINEAR ACCELERATION Z (m/s²);GYROSCOPE X (rad/s);GYROSCOPE Y (rad/s);GYROSCOPE Z (rad/s);LIGHT (lux);MAGNETIC FIELD X (μT);MAGNETIC FIELD Y (μT);MAGNETIC FIELD Z (μT);ORIENTATION Z (azimuth °);ORIENTATION X (pitch °);ORIENTATION Y (roll °);PROXIMITY (m);ATMOSPHERIC PRESSURE (hPa);SOUND LEVEL (dB);LOCATION Latitude : ;LOCATION Longitude : ;LOCATION Altitude ( m);LOCATION Altitude-google ( m);LOCATION Altitude-atmospheric pressure ( m);LOCATION Speed ( Kmh);LOCATION Accuracy ( m);LOCATION ORIENTATION (°);Satellites in range;Time since start in ms ;YYYY-MO-DD HH-MI-SS_SSS
-0.0766;1.8066;9.7914;-0.0849;1.7739;9.6445;0.012;0.0015;-0.0056;0.0014;0.001;-8.0E-4;733.0;118.68;32.46;-47.41;288.72;-10.42;0.53;8.0;993.93;62.416;44.567577;-123.2747;125.26;NaN;;0.0;6.068;;12 / 21;20;2018-03-07 17:31:16:477
-0.0885;1.797;9.7843;-0.086;1.7737;9.6445;-0.0097;0.008;0.0103;0.001;6.0E-4;-2.0E-4;733.0;119.65;32.31;-45.83;288.48;-10.41;0.5;8.0;993.92;62.416;44.567577;-123.2747;125.26;NaN;;0.0;6.068;;12 / 21;520;2018-03-07 17:31:16:977
-0.0718;1.7874;9.7986;-0.0837;1.7726;9.6447;0.0071;-0.0074;-5.0E-4;8.0E-4;0.0014;-6.0E-4;732.0;120.61;32.08;-45.2;288.26;-10.42;0.5;8.0;993.93;62.416;44.567577;-123.2747;125.26;NaN;;0.0;6.068;;12 / 21;1020;2018-03-07 17:31:17:477
-0.0909;1.7994;9.7867;-0.0833;1.7732;9.6447;-0.0055;-0.0031;0.0041;3.0E-4;6.0E-4;-4.0E-4;733.0;119.13;32.73;-48.44;289.21;-10.41;0.49;8.0;993.93;62.416;44.567577;-123.2747;125.26;NaN;;0.0;6.068;;12 / 21;1520;2018-03-07 17:31:17:977
-0.0861;1.8042;9.7914;-0.0818;1.77;9.6452;0.0013;-2.0E-4;0.0015;-1.0E-4;6.0E-4;0.0;731.0;118.67;32.79;-48.35;289.21;-10.41;0.49;8.0;993.96;62.416;44.567577;-123.2747;125.26;NaN;;0.0;6.068;;12 / 21;2020;2018-03-07 17:31:18:477
-0.0694;1.7874;9.801;-0.0836;1.7666;9.6458;-0.0031;-0.0082;-0.0041;5.0E-4;4.0E-4;-6.0E-4;730.0;117.87;32.79;-48.52;289.43;-10.39;0.49;8.0;993.93;62.416;44.567577;-123.2747;125.26;NaN;;0.0;6.068;;12 / 21;2520;2018-03-07 17:31:18:977
-0.0622;1.8042;9.7986;-0.0818;1.7701;9.6452;0.0188;-9.0E-4;4.0E-4;-1.0E-4;0.0;-4.0E-4;730.0;118.25;32.95;-48.26;289.35;-10.38;0.51;8.0;993.93;62.416;44.567577;-123.2747;125.26;NaN;;0.0;6.068;;12 / 21;3019;2018-03-07 17:31:19:476
-0.0431;1.7898;9.7843;-0.079;1.769;9.6455;0.0207;-0.0065;-0.012;3.0E-4;8.0E-4;-4.0E-4;730.0;118.39;32.52;-48.09;289.35;-10.39;0.47;8.0;993.94;62.416;44.567577;-123.2747;125.26;NaN;;0.0;6.068;;12 / 21;3519;2018-03-07 17:31:19:976
-0.0885;1.7922;9.7651;-0.0833;1.7679;9.6456;-0.0142;-0.013;0.0249;-5.0E-4;0.0012;0.0;730.0;119.18;32.58;-48.53;289.28;-10.4;0.49;8.0;993.92;62.416;44.567577;-123.2747;125.26;NaN;;0.0;6.068;;12 / 21;4020;2018-03-07 17:31:20:477
-0.079;1.7611;9.7914;-0.0865;1.7695;9.6453;0.0072;-0.0223;-0.001;3.0E-4;2.0E-4;0.0;730.0;118.47;32.6;-51.14;289.6;-10.41;0.49;8.0;993.93;62.416;44.567577;-123.2747;125.26;NaN;;0.0;6.068;;12 / 21;4519;2018-03-07 17:31:20:976
-0.067;1.797;9.7795;-0.0845;1.7724;9.6448;0.0166;-0.0078;0.0048;9.0E-4;0.0014;-6.0E-4;729.0;117.8;32.53;-51.71;289.67;-10.38;0.52;8.0;993.93;62.416;44.567577;-123.2747;125.26;NaN;;0.0;6.068;;12 / 21;5019;2018-03-07 17:31:21:476
-0.0694;1.7922;9.7819;-0.0859;1.7734;9.6446;-5.0E-4;-0.0057;-0.0127;-3.0E-4;2.0E-4;-6.0E-4;728.0;117.6;32.14;-51.62;289.26;-10.4;0.52;8.0;993.92;62.416;44.567577;-123.2747;125.26;NaN;;0.0;6.068;;12 / 21;5519;2018-03-07 17:31:21:976
-0.0502;1.7803;9.7747;-0.0791;1.7709;9.6451;0.0214;-0.0072;-0.0074;7.0E-4;-0.001;-0.001;727.0;118.0;32.11;-48.15;289.51;-10.41;0.48;8.0;993.93;62.416;44.567577;-123.2747;125.26;NaN;;0.0;6.068;;12 / 21;6020;2018-03-07 17:31:22:477
-0.1555;1.6199;10.0235;-0.071;1.7784;9.6438;-0.0714;-0.056;0.1339;7.0E-4;-0.0012;-0.0026;728.0;117.57;31.0;-43.9;288.17;-10.45;0.42;8.0;993.92;62.416;44.567577;-123.2747;125.26;NaN;;0.0;6.068;;12 / 21;6519;2018-03-07 17:31:22:976
-0.079;1.8377;9.7555;-0.0694;1.7784;9.6438;-0.0185;0.0266;-0.02;1.0E-4;-6.0E-4;-0.0014;726.0;117.52;31.61;-45.12;288.65;-10.4;0.37;8.0;993.93;62.416;44.567577;-123.2747;125.26;NaN;;0.0;6.068;;12 / 21;7019;2018-03-07 17:31:23:476
-0.0742;1.8018;9.7867;-0.0551;1.7763;9.6443;0.0029;-0.0107;0.0288;0.0019;-0.001;-0.0042;726.0;118.22;30.43;-42.21;287.56;-10.44;0.36;8.0;993.93;62.416;44.567577;-123.2747;125.26;NaN;;0.0;6.068;;12 / 21;7520;2018-03-07 17:31:23:977
-0.0311;1.8042;9.7077;-0.0605;1.7814;9.6433;0.0427;-0.0052;-0.0465;-1.0E-4;-6.0E-4;0.0;725.0;117.88;30.63;-42.56;288.09;-10.46;0.41;8.0;993.93;62.416;44.567577;-123.2747;125.26;NaN;;0.0;6.068;;12 / 21;8020;2018-03-07 17:31:24:477
-0.2225;1.3998;9.801;-0.0971;1.7142;9.6552;-0.1838;-0.3284;0.0771;-0.0089;0.0104;0.0141;725.0;118.35;29.99;-42.54;287.6;-10.19;0.49;8.0;993.93;62.416;44.567577;-123.2747;125.26;NaN;;0.0;6.068;;12 / 21;8519;2018-03-07 17:31:24:976
-0.2177;1.5099;9.8297;-0.2355;1.5394;9.6822;-0.1009;-0.1464;0.0443;-0.0011;0.0126;0.0611;725.0;118.04;31.26;-44.82;288.1;-9.49;0.96;8.0;993.94;62.416;44.567577;-123.2747;125.26;NaN;;0.0;6.068;;12 / 21;9019;2018-03-07 17:31:25:476
-0.1651;1.529;9.8058;-0.275;1.5033;9.6868;0.1049;0.0114;-0.0052;-0.0011;0.0195;0.109;725.0;118.48;32.75;-46.14;289.0;-8.82;1.63;8.0;993.94;62.416;44.567577;-123.2747;125.26;NaN;;0.0;6.068;;12 / 21;9520;2018-03-07 17:31:25:977
-0.1125;1.5386;9.7867;-0.1906;1.5002;9.6893;0.1052;-0.0284;-0.0143;-0.0023;0.0297;0.1468;725.0;118.7;32.78;-47.71;288.92;-8.85;1.32;8.0;993.93;62.416;44.567577;-123.2747;125.26;NaN;;0.0;6.068;;12 / 21;10020;2018-03-07 17:31:26:477
-0.0431;1.5936;9.7962;-0.1486;1.5089;9.6887;0.1215;0.0236;-0.009;-0.0022;0.0344;0.1737;726.0;119.69;34.57;-48.94;289.59;-8.83;0.96;8.0;993.93;62.416;44.567577;-123.2747;125.26;NaN;;0.0;6.068;;12 / 21;10520;2018-03-07 17:31:26:977
0.0957;1.8018;9.7316;-0.0847;1.5502;9.683;0.1543;0.2707;-0.0798;0.0034;0.0391;0.1808;727.0;120.57;36.14;-48.07;289.95;-9.02;0.5;8.0;993.92;62.416;44.567577;-123.2747;126.03;NaN;;2.38;6.068;296.8;12 / 21;11019;2018-03-07 17:31:27:476
0.1125;1.7157;9.7077;0.0181;1.674;9.6627;0.0684;0.0774;-0.0412;0.0013;0.0368;0.181;728.0;120.84;37.05;-49.48;290.29;-9.73;-0.02;8.0;993.92;62.416;44.567577;-123.2747;126.03;NaN;;2.38;6.068;296.8;12 / 21;11519;2018-03-07 17:31:27:976
0.1268;1.7874;9.6;0.0737;1.723;9.6538;0.0757;0.0316;-0.0058;0.0048;0.0381;0.1743;729.0;121.88;37.82;-49.23;290.7;-9.97;-0.27;8.0;993.93;62.416;44.567577;-123.2747;125.35;NaN;;2.95;6.068;296.5;12 / 21;12020;2018-03-07 17:31:28:477
0.1388;1.7898;9.7388;0.0701;1.7543;9.6482;0.0858;0.0738;0.0378;0.0025;0.0364;0.1698;730.0;123.22;38.93;-49.16;290.85;-10.31;-0.42;8.0;993.94;62.416;44.567577;-123.2747;125.35;NaN;;2.95;6.068;296.5;12 / 21;12520;2018-03-07 17:31:28:977
0.2489;2.2253;9.6407;0.1909;1.9656;9.6058;0.1476;0.2187;-0.1168;0.0034;0.0267;0.1379;730.0;124.0;39.4;-51.01;291.02;-10.97;-0.74;8.0;993.92;62.416;44.567577;-123.2747;125.23;NaN;;2.59;6.068;296.2;12 / 21;13020;2018-03-07 17:31:29:477
0.536;2.4742;9.5761;0.3668;2.1829;9.5536;0.2823;0.1393;0.0085;5.0E-4;0.0159;0.0751;730.0;124.08;40.69;-52.65;292.0;-12.63;-1.8;8.0;993.94;62.416;44.567577;-123.2747;125.23;NaN;;2.59;6.068;296.2;12 / 21;13520;2018-03-07 17:31:29:977
0.189;1.9454;9.454;0.3509;2.246;9.5395;-0.3022;-0.405;-0.0538;0.0015;-2.0E-4;-4.0E-4;730.0;124.47;40.4;-52.96;291.67;-13.24;-2.11;8.0;993.93;62.416;44.567577;-123.2747;125.11;NaN;;1.66;6.068;296.1;12 / 21;14020;2018-03-07 17:31:30:477
-0.0215;2.077;9.6598;0.2113;2.1813;9.5586;-0.2221;-0.0995;-0.0273;-0.0013;0.0024;-0.0118;730.0;125.71;38.93;-48.89;290.7;-13.09;-1.82;8.0;993.94;62.416;44.567577;-123.2747;125.11;NaN;;1.66;6.068;296.1;12 / 21;14520;2018-03-07 17:31:30:977
-0.1268;2.2564;9.612;0.0228;2.1204;9.5746;-0.1631;-0.0302;0.002;0.0021;0.002;-0.0091;730.0;125.63;38.55;-47.11;290.86;-12.63;-0.67;8.0;993.93;62.416;44.567577;-123.2747;124.5;NaN;;0.0;6.068;;12 / 21;15019;2018-03-07 17:31:31:476
-0.3637;2.5627;9.6574;-0.1099;2.3216;9.5272;-0.2479;0.2356;-0.0748;3.0E-4;0.0104;0.0214;729.0;125.18;38.34;-48.27;291.1;-13.25;0.3;8.0;993.93;62.416;44.567577;-123.2747;124.5;NaN;;0.0;6.068;;12 / 21;15519;2018-03-07 17:31:31:976
-0.7226;2.5149;9.7005;-0.4628;2.4553;9.483;-0.2564;0.0137;0.0171;-0.0025;0.0324;0.132;730.0;126.08;38.96;-47.64;292.37;-14.43;2.35;8.0;993.92;62.416;44.567577;-123.2747;124.5;NaN;;0.0;6.068;;12 / 21;16021;2018-03-07 17:31:32:478
-1.4357;2.3306;9.7316;-0.6997;2.5201;9.4515;-0.5363;-0.0608;-0.0298;-0.0076;0.07;0.278;734.0;127.23;39.18;-48.76;293.0;-14.87;3.81;8.0;993.93;62.416;44.567577;-123.2747;124.5;NaN;;0.0;6.068;;12 / 21;16520;2018-03-07 17:31:32:977
-0.9811;1.9908;9.655;-0.8291;2.4814;9.4512;-0.1377;-0.4366;0.0449;-0.0111;0.0784;0.4105;738.0;128.58;39.95;-49.55;293.57;-14.72;4.95;8.0;993.91;62.416;44.567577;-123.2747;125.0;NaN;;4.07;6.068;12.5;12 / 21;17020;2018-03-07 17:31:33:477
-1.3567;1.7252;9.545;-0.7902;2.5133;9.4461;-0.5224;-0.8533;-0.0685;-0.0193;0.0957;0.4848;745.0;131.65;40.65;-47.21;293.2;-14.85;5.01;8.0;993.92;62.416;44.567577;-123.2747;125.0;NaN;;4.07;6.068;12.5;12 / 21;17519;2018-03-07 17:31:33:976
-1.1127;1.1342;9.9302;-0.7243;2.4407;9.4704;-0.6002;-1.1698;0.215;-0.0284;0.1012;0.5107;755.0;137.12;39.92;-47.78;291.83;-14.41;4.37;8.0;993.92;62.416;44.567577;-123.2747;125.04;NaN;;7.24;6.068;349.0;12 / 21;18019;2018-03-07 17:31:34:476
-1.1318;0.9093;9.8752;-0.86;1.8032;9.601;-0.2102;-0.7912;0.0822;-0.0229;0.1026;0.4938;765.0;141.65;37.93;-47.91;289.75;-11.8;4.74;8.0;993.93;62.416;44.567577;-123.2747;125.04;NaN;;7.24;6.068;349.0;12 / 21;18519;2018-03-07 17:31:34:976
-1.3472;1.4357;9.7388;-1.0537;1.5655;9.6234;-0.1773;-0.2174;-0.1943;-0.0019;0.1252;0.4993;777.0;144.92;35.31;-51.4;288.05;-9.19;6.25;8.0;993.92;62.416;44.567577;-123.2747;124.69;NaN;;8.46;6.068;321.4;12 / 21;19020;2018-03-07 17:31:35:477
-1.5386;1.2993;9.8177;-1.2325;1.8568;9.5501;-0.2815;-0.6044;-0.1403;-3.0E-4;0.0969;0.5358;781.0;147.52;33.35;-53.01;288.03;-10.59;7.34;8.0;993.92;62.416;44.567577;-123.2747;124.69;NaN;;8.46;6.068;321.4;12 / 21;19519;2018-03-07 17:31:35:976
-0.2704;1.1916;9.667;-1.0385;2.0322;9.5374;0.7182;-0.6959;0.0923;0.0021;0.07;0.4468;783.0;147.38;29.07;-54.92;287.05;-11.96;6.21;8.0;993.91;62.416;44.567577;-123.2747;124.85;NaN;;8.86;6.068;293.0;12 / 21;20019;2018-03-07 17:31:36:476
0.012;1.4692;9.7029;-0.6933;1.934;9.589;0.6481;-0.433;-0.0379;-0.0129;0.0495;0.3509;785.0;149.09;24.94;-54.45;284.52;-11.36;4.43;8.0;993.9;62.416;44.567577;-123.2747;124.85;NaN;;8.86;6.068;293.0;12 / 21;20520;2018-03-07 17:31:36:977
0.1771;1.6439;9.4875;-0.491;1.8371;9.6205;0.6271;-0.2964;-0.1989;-0.0093;0.0261;0.2566;783.0;147.94;22.96;-55.19;283.31;-10.8;2.92;8.0;993.92;62.416;44.567577;-123.2747;124.51;NaN;;8.68;6.068;270.1;12 / 21;21019;2018-03-07 17:31:37:476
-0.0048;1.4596;9.8632;-0.3154;1.6863;9.6554;0.2558;-0.167;0.1026;-0.0227;0.0338;0.2063;782.0;147.21;22.42;-57.84;282.76;-10.15;2.06;8.0;993.91;62.416;44.567577;-123.2747;124.51;NaN;;8.68;6.068;270.1;12 / 21;21519;2018-03-07 17:31:37:976
0.3111;1.5864;9.7507;-0.1383;1.606;9.6733;0.3214;-0.0201;-0.0395;-0.0085;0.0199;0.1423;780.0;146.06;21.03;-58.13;281.89;-9.43;0.82;8.0;993.92;62.416;44.567577;-123.2747;124.31;NaN;;7.92;6.068;261.1;12 / 21;22020;2018-03-07 17:31:38:477
0.2752;1.5697;9.6742;0.0664;1.5474;9.6836;0.2544;0.032;-0.0693;-9.0E-4;0.0073;0.0863;779.0;146.61;21.67;-58.22;281.79;-9.07;-0.32;8.0;993.92;62.416;44.567577;-123.2747;124.31;NaN;;7.92;6.068;261.1;12 / 21;22519;2018-03-07 17:31:38:976
0.3183;1.651;9.5522;0.1437;1.5558;9.6814;0.2093;0.0635;-0.3317;0.0031;0.0067;0.0542;777.0;145.51;20.82;-58.88;281.45;-9.13;-0.85;8.0;993.92;62.416;44.567577;-123.2747;124.21;NaN;;8.06;6.068;256.8;12 / 21;23019;2018-03-07 17:31:39:476
0.6772;1.596;10.1767;0.1927;1.5339;9.684;0.5209;-0.0067;0.1497;-0.0058;0.0116;-0.0038;777.0;145.18;20.7;-59.08;281.45;-9.04;-1.05;8.0;993.92;62.416;44.567577;-123.2747;124.21;NaN;;8.06;6.068;256.8;12 / 21;23520;2018-03-07 17:31:39:977
0.457;1.6702;9.9828;0.244;1.5072;9.6871;0.0444;0.1567;0.517;-0.0079;-0.0181;-0.0448;776.0;146.83;20.76;-61.14;281.29;-8.87;-1.35;8.0;993.92;62.416;44.567577;-123.2747;124.29;NaN;;8.53;6.068;257.6;12 / 21;24019;2018-03-07 17:31:40:476
-0.3637;1.5386;9.7292;0.1286;1.4622;9.6962;-0.5418;-0.0209;0.0334;-0.0178;0.0309;0.0145;773.0;147.16;19.98;-61.74;281.32;-8.66;-1.11;8.0;993.93;62.416;44.567577;-123.2747;124.29;NaN;;8.53;6.068;257.6;12 / 21;24519;2018-03-07 17:31:40:976
0.1125;0.8901;9.9805;0.0819;1.327;9.7161;-0.0433;-0.1882;0.1036;-0.0085;0.0204;0.0379;770.0;146.31;19.28;-58.32;280.26;-7.78;-0.48;8.0;993.94;62.416;44.567577;-123.2747;124.39;NaN;;9.11;6.068;261.9;12 / 21;25020;2018-03-07 17:31:41:477
0.1316;0.4762;10.124;0.012;1.0265;9.7528;0.0522;-0.5043;0.0912;-0.0097;0.0143;0.0361;767.0;147.25;19.88;-57.58;280.31;-6.82;-0.04;8.0;993.96;62.416;44.567577;-123.2747;124.39;NaN;;9.11;6.068;261.9;12 / 21;25519;2018-03-07 17:31:41:976
0.0455;0.2249;10.2126;-0.0322;0.8305;9.7714;0.1373;-0.6289;0.3223;-0.0148;0.0116;0.0285;766.0;146.32;19.82;-57.24;279.65;-4.86;0.19;8.0;993.96;62.416;44.567577;-123.2747;124.36;NaN;;9.18;6.068;257.7;12 / 21;26019;2018-03-07 17:31:42:476
-0.1196;0.3159;10.0642;-0.0644;0.593;9.7885;-0.0414;-0.3273;0.2478;-0.0137;0.021;0.0179;764.0;147.0;20.28;-57.89;279.35;-4.09;0.33;8.0;993.98;62.416;44.567577;-123.2747;124.36;NaN;;9.18;6.068;257.7;12 / 21;26520;2018-03-07 17:31:42:977
-0.1795;0.1651;10.069;-0.1008;0.4491;9.7958;0.1073;-0.2829;0.2419;-0.0036;0.0118;0.0104;762.0;146.11;19.74;-57.8;278.9;-2.71;0.51;8.0;993.99;62.416;44.567577;-123.2747;124.38;NaN;;6.66;6.068;257.6;12 / 21;27019;2018-03-07 17:31:43:476
-0.1938;0.079;10.1001;-0.0907;0.3381;9.8004;-0.0619;-0.2578;0.0622;-0.004;0.0073;0.0059;762.0;146.24;19.58;-57.88;278.78;-2.38;0.56;8.0;994.0;62.416;44.567577;-123.2747;124.38;NaN;;6.66;6.068;257.6;12 / 21;27520;2018-03-07 17:31:43:977
-0.0814;0.0455;10.1025;-0.0486;0.169;9.8051;-0.0247;-0.0955;0.0736;-5.0E-4;0.003;0.0029;761.0;146.91;20.26;-59.77;278.16;-0.99;0.28;8.0;994.0;62.416;44.567577;-123.2747;124.4;NaN;;3.28;6.068;254.9;12 / 21;28019;2018-03-07 17:31:44:476
-0.1053;1.2467;9.8776;-0.0563;0.2811;9.8025;-0.0812;0.819;0.032;0.005;0.0;0.0013;760.0;146.74;20.51;-59.62;278.69;-1.35;0.3;8.0;993.99;62.416;44.567577;-123.2747;124.4;NaN;;3.28;6.068;254.9;12 / 21;28520;2018-03-07 17:31:44:977
-0.0383;0.9811;9.9278;-0.0628;0.6022;9.7879;0.0182;0.3558;-0.0374;-1.0E-4;-6.0E-4;0.0;760.0;146.65;20.08;-59.9;279.18;-3.52;0.37;8.0;993.99;62.416;44.567577;-123.2747;124.4;NaN;;3.28;6.068;254.9;12 / 21;29020;2018-03-07 17:31:45:477
-0.079;1.048;9.9111;-0.061;0.8754;9.7673;0.0023;0.1791;-0.0275;5.0E-4;0.001;-2.0E-4;759.0;146.23;19.89;-60.13;279.88;-5.12;0.36;8.0;993.99;62.416;44.567577;-123.2747;124.4;NaN;;3.28;6.068;254.9;12 / 21;29520;2018-03-07 17:31:45:977
-0.0885;1.0792;9.8632;-0.0674;0.9951;9.7558;-0.0225;0.0682;-0.0102;3.0E-4;0.001;4.0E-4;759.0;146.15;21.09;-60.15;280.49;-5.72;0.36;8.0;993.99;62.416;44.567577;-123.2747;124.4;NaN;;3.28;6.068;254.9;12 / 21;30020;2018-03-07 17:31:46:477
-0.079;1.0504;9.8704;-0.0674;1.0264;9.7526;-0.0041;0.0237;-0.0097;-3.0E-4;-4.0E-4;6.0E-4;758.0;146.63;20.58;-59.27;280.49;-5.99;0.37;8.0;993.98;62.416;44.567577;-123.2747;124.4;NaN;;3.28;6.068;254.9;12 / 21;30521;2018-03-07 17:31:46:978
-0.0885;1.0624;9.8656;-0.068;1.0387;9.7512;-0.0104;0.0095;3.0E-4;3.0E-4;0.0;4.0E-4;757.0;147.23;20.68;-58.06;280.49;-6.08;0.4;8.0;993.99;62.416;44.567577;-123.2747;124.4;NaN;;3.28;6.068;254.9;12 / 21;31020;2018-03-07 17:31:47:477
-0.0574;1.0504;9.8704;-0.0621;1.0461;9.7505;-0.0049;0.0181;0.0074;-1.0E-4;2.0E-4;2.0E-4;758.0;146.82;20.56;-56.26;280.41;-6.11;0.35;8.0;993.99;62.416;44.567577;-123.2747;124.4;NaN;;3.28;6.068;254.9;12 / 21;31519;2018-03-07 17:31:47:976
-0.0694;1.0648;9.8584;-0.0597;1.0465;9.7505;0.0055;0.003;0.0049;1.0E-4;-4.0E-4;0.0;756.0;146.28;20.59;-49.96;280.24;-6.13;0.35;8.0;993.99;62.416;44.567577;-123.2747;124.4;NaN;;3.28;6.068;254.9;12 / 21;32021;2018-03-07 17:31:48:478
-0.0574;1.0504;9.8632;-0.0566;1.0476;9.7504;-0.0018;-0.0059;5.0E-4;3.0E-4;0.0;2.0E-4;755.0;145.85;20.37;-50.14;279.86;-6.13;0.35;8.0;993.99;62.416;44.567577;-123.2747;124.4;NaN;;3.28;6.068;254.9;12 / 21;32520;2018-03-07 17:31:48:977
-0.0766;1.0528;9.856;-0.059;1.0464;9.7505;-0.0165;-0.0084;-0.0081;1.0E-4;-4.0E-4;2.0E-4;756.0;145.65;21.12;-51.82;280.32;-6.14;0.33;8.0;993.99;62.416;44.567577;-123.2747;124.4;NaN;;3.28;6.068;254.9;12 / 21;33019;2018-03-07 17:31:49:476
-0.0694;1.06;9.8584;-0.059;1.0472;9.7504;-0.0132;0.004;-0.0031;-3.0E-4;-0.0012;6.0E-4;755.0;146.05;20.9;-51.18;280.28;-6.13;0.34;8.0;993.99;62.416;44.567577;-123.2747;124.4;NaN;;3.28;6.068;254.9;12 / 21;33520;2018-03-07 17:31:49:977
-0.0263;1.0576;9.8465;-0.0581;1.0494;9.7502;0.0222;0.0041;-0.0121;-7.0E-4;-6.0E-4;-2.0E-4;754.0;146.05;21.08;-51.0;280.28;-6.14;0.34;8.0;993.98;62.416;44.567577;-123.2747;124.4;NaN;;3.28;6.068;254.9;12 / 21;34019;2018-03-07 17:31:50:476
-0.0431;1.0624;9.868;-0.0569;1.0474;9.7504;0.0165;0.002;0.0019;-7.0E-4;0.0;8.0E-4;754.0;144.96;20.19;-50.56;279.97;-6.14;0.37;8.0;993.98;62.416;44.567577;-123.2747;124.4;NaN;;3.28;6.068;254.9;12 / 21;34520;2018-03-07 17:31:50:977
-0.122;0.9165;9.9015;0.027;1.0134;9.7541;0.2599;0.1666;0.0211;-0.0539;-0.0474;0.4358;754.0;145.98;20.78;-49.53;280.09;-5.93;-0.16;8.0;993.99;62.416;44.567577;-123.2747;124.4;NaN;;3.28;6.068;254.9;12 / 21;35019;2018-03-07 17:31:51:476
0.5575;0.7705;9.9757;0.4533;0.8027;9.7632;0.3558;0.0567;0.0156;-0.0323;0.0674;1.3682;754.0;149.87;6.91;-25.0;273.33;-5.27;-2.04;8.0;994.04;62.416;44.567577;-123.2747;124.4;NaN;;3.28;6.068;254.9;12 / 21;35520;2018-03-07 17:31:51:977
1.3208;0.7155;9.8871;0.8763;0.4638;9.7564;1.0779;-0.705;-0.0731;-0.0011;0.0065;0.1403;745.0;127.72;-16.59;23.37;261.47;-3.15;-4.88;8.0;993.93;62.416;44.567577;-123.2747;124.4;NaN;;3.28;6.068;254.9;12 / 21;36020;2018-03-07 17:31:52:477
1.1701;-0.0263;9.88;0.8589;0.0086;9.769;1.7418;-0.7752;0.0544;-0.0036;-0.0065;0.335;722.0;109.73;-19.19;31.53;259.6;-0.87;-4.83;8.0;993.98;62.416;44.567577;-123.2747;124.4;NaN;;3.28;6.068;254.9;12 / 21;36519;2018-03-07 17:31:52:976
1.1844;-0.2201;9.8752;0.9728;-0.1181;9.7576;0.1627;-0.0726;0.0104;5.0E-4;0.002;0.0011;712.0;101.43;-14.31;41.22;262.1;0.69;-5.69;8.0;994.0;62.416;44.567577;-123.2747;124.4;NaN;;3.28;6.068;254.9;12 / 21;37019;2018-03-07 17:31:53:476
1.2156;0.0359;9.8106;1.1315;0.1063;9.7406;-0.1901;0.0969;-0.0223;0.0143;-0.0637;-0.2527;718.0;102.33;-15.0;38.99;261.32;0.2;-6.3;8.0;993.98;62.416;44.567577;-123.2747;124.4;NaN;;3.28;6.068;254.9;12 / 21;37520;2018-03-07 17:31:53:977
1.2754;0.3326;10.1169;0.8964;0.7451;9.7371;0.7679;-0.9357;-0.1651;-0.1025;0.2278;-2.6078;742.0;122.59;-18.53;25.93;259.73;-4.36;-5.26;8.0;993.97;62.416;44.567577;-123.2747;124.4;NaN;;3.28;6.068;254.9;12 / 21;38020;2018-03-07 17:31:54:477
-0.28;1.4548;9.8393;0.0966;1.3225;9.7166;0.088;0.4223;0.0638;0.0089;-0.0106;-0.6719;750.0;146.88;16.37;-41.31;277.96;-7.56;-1.61;8.0;994.03;62.416;44.567577;-123.2747;124.4;NaN;;3.28;6.068;254.9;12 / 21;38521;2018-03-07 17:31:54:978
-0.1651;1.0648;9.9182;-0.0569;1.231;9.7289;-0.0868;-0.2333;0.0248;-3.0E-4;0.0;-2.0E-4;749.0;125.31;29.77;-75.38;287.62;-7.52;0.21;8.0;993.99;62.416;44.567577;-123.2747;124.4;NaN;;3.28;6.068;254.9;12 / 21;39022;2018-03-07 17:31:55:479
-0.4786;0.9404;9.8752;-0.3855;1.139;9.7326;-0.1337;-0.2021;0.0023;0.0093;0.0185;-0.0313;743.0;117.25;30.33;-79.66;289.17;-6.67;2.15;8.0;993.94;62.416;44.567577;-123.2747;124.4;NaN;;3.28;6.068;254.9;12 / 21;39519;2018-03-07 17:31:55:976
-0.3183;0.871;9.8417;-0.4579;1.0443;9.7401;0.6554;-0.4365;0.0172;0.0048;0.0096;-0.0234;749.0;115.35;20.43;-86.35;284.96;-6.11;2.69;8.0;993.97;62.416;44.567577;-123.2747;124.4;NaN;;3.28;6.068;254.9;12 / 21;40019;2018-03-07 17:31:56:476
-0.5192;0.6126;9.3512;-0.6966;0.4116;9.7732;0.1987;-0.0582;-0.0689;-0.0199;-0.02;-1.3158;725.0;71.58;10.26;-50.12;281.05;-3.8;2.97;8.0;993.97;62.416;44.567577;-123.2747;124.4;NaN;;3.28;6.068;254.9;12 / 21;40522;2018-03-07 17:31:56:979
-1.5242;-0.1507;9.856;-1.02;0.149;9.7523;-0.9929;-0.3277;-0.002;0.0056;-0.0084;-0.5927;624.0;79.41;6.28;-9.39;274.66;-1.11;5.86;8.0;993.99;62.416;44.567577;-123.2747;124.4;NaN;;3.28;6.068;254.9;12 / 21;41020;2018-03-07 17:31:57:477
-2.9623;0.7155;10.0714;-0.9992;0.3913;9.7478;-1.9359;0.2738;-0.123;-0.03;-0.0493;1.5529;736.0;79.51;7.95;-10.5;276.1;-1.2;6.17;8.0;994.01;62.416;44.567577;-123.2747;124.4;NaN;;3.28;6.068;254.9;12 / 21;41520;2018-03-07 17:31:57:977
0.3015;1.3687;9.5856;-0.4764;1.0115;9.7427;0.9936;-0.2189;-0.1777;-0.0192;0.0413;2.1888;746.0;83.44;16.98;-74.62;287.55;-5.92;2.8;8.0;994.02;62.416;44.567577;-123.2747;124.4;NaN;;3.28;6.068;254.9;12 / 21;42023;2018-03-07 17:31:58:480
0.0215;1.0528;9.8752;-0.1084;1.0995;9.7442;0.1145;-0.0461;0.0151;-3.0E-4;-8.0E-4;-4.0E-4;747.0;142.12;25.61;-57.84;282.97;-6.45;0.67;8.0;994.02;62.416;44.567577;-123.2747;124.4;NaN;;3.28;6.068;254.9;12 / 21;42519;2018-03-07 17:31:58:976
0.0479;1.072;9.8728;-0.0253;1.0693;9.7481;0.073;-0.0235;-0.0011;1.0E-4;0.0;4.0E-4;745.0;144.59;21.86;-54.81;280.9;-6.26;0.15;8.0;994.0;62.416;44.567577;-123.2747;124.4;NaN;;3.28;6.068;254.9;12 / 21;43020;2018-03-07 17:31:59:477
-0.1029;1.1198;9.6455;0.0191;1.0507;9.7502;0.0094;-7.0E-4;0.037;-1.0E-4;-0.0014;4.0E-4;746.0;141.42;21.8;-57.97;281.28;-6.19;-0.02;8.0;993.99;62.416;44.567577;-123.2747;124.4;NaN;;3.28;6.068;254.9;12 / 21;43519;2018-03-07 17:31:59:976
0.0215;1.0457;9.8752;0.0307;1.0452;9.7507;-0.0031;-0.0069;0.0024;-7.0E-4;-2.0E-4;6.0E-4;745.0;145.99;22.24;-62.77;281.05;-6.12;-0.18;8.0;994.0;62.416;44.567577;-123.2747;124.4;NaN;;3.28;6.068;254.9;12 / 21;44019;2018-03-07 17:32:00:476
0.0311;1.06;9.8776;0.0338;1.0438;9.7509;0.0065;0.0053;0.0027;-3.0E-4;-4.0E-4;4.0E-4;744.0;146.15;22.42;-63.58;281.07;-6.1;-0.22;8.0;993.98;62.416;44.567577;-123.2747;124.4;NaN;;3.28;6.068;254.9;12 / 21;44520;2018-03-07 17:32:00:977
0.0215;1.0528;9.8776;0.0352;1.0429;9.751;0.0027;0.0039;0.0026;0.0011;6.0E-4;4.0E-4;744.0;147.13;21.65;-65.85;281.08;-6.1;-0.21;8.0;994.0;62.416;44.567577;-123.2747;124.4;NaN;;3.28;6.068;254.9;12 / 21;45019;2018-03-07 17:32:01:476
-0.0335;1.0576;9.8752;-0.0232;1.0374;9.7516;-0.0036;0.0079;0.0053;-0.0013;-0.002;0.0;744.0;149.3;19.34;-63.11;279.76;-6.07;0.13;8.0;994.01;62.416;44.567577;-123.2747;124.4;NaN;;3.28;6.068;254.9;12 / 21;45520;2018-03-07 17:32:01:977
-0.0311;1.0624;9.8776;-0.0251;1.0411;9.7512;-0.0176;0.0039;0.004;1.0E-4;0.0;-2.0E-4;743.0;150.69;18.42;-62.8;279.27;-6.09;0.13;8.0;994.0;62.416;44.567577;-123.2747;124.4;NaN;;3.28;6.068;254.9;12 / 21;46019;2018-03-07 17:32:02:476
-0.0407;1.0576;9.8871;-0.027;1.0411;9.7512;-0.0117;0.0022;0.0092;1.0E-4;-2.0E-4;2.0E-4;742.0;150.27;18.52;-62.65;279.7;-6.09;0.14;8.0;994.0;62.416;44.567577;-123.2747;124.4;NaN;;3.28;6.068;254.9;12 / 21;46520;2018-03-07 17:32:02:977
-0.0239;1.0552;9.8895;-0.0286;1.0413;9.7512;-0.0061;0.0058;0.0085;-1.0E-4;-8.0E-4;4.0E-4;742.0;148.95;18.92;-64.37;279.81;-6.1;0.17;8.0;994.0;62.416;44.567577;-123.2747;124.4;NaN;;3.28;6.068;254.9;12 / 21;47019;2018-03-07 17:32:03:476
-0.0311;1.06;9.88;-0.0268;1.0414;9.7512;-0.0039;0.004;6.0E-4;-7.0E-4;0.0;-6.0E-4;743.0;149.45;18.77;-64.01;279.82;-6.1;0.18;8.0;993.99;62.416;44.567577;-123.2747;124.4;NaN;;3.28;6.068;254.9;12 / 21;47519;2018-03-07 17:32:03:976
-0.0311;1.0528;9.8824;-0.0292;1.0422;9.7511;-0.0063;-0.0016;-0.0014;3.0E-4;0.0;0.0;742.0;149.71;18.34;-63.58;279.44;-6.1;0.17;8.0;993.98;62.416;44.567577;-123.2747;124.4;NaN;;3.28;6.068;254.9;12 / 21;48020;2018-03-07 17:32:04:477
-0.0311;1.0385;9.8704;-0.0285;1.0409;9.7512;-0.0022;-0.0074;-0.0037;-1.0E-4;-8.0E-4;8.0E-4;741.0;149.11;17.6;-60.82;279.32;-6.1;0.17;8.0;994.0;62.416;44.567577;-123.2747;124.4;NaN;;3.28;6.068;254.9;12 / 21;48520;2018-03-07 17:32:04:977
-0.0335;1.0433;9.8871;-0.0273;1.0411;9.7512;-0.0075;-0.01;0.0019;-7.0E-4;-4.0E-4;8.0E-4;739.0;149.86;17.84;-60.42;279.22;-6.1;0.16;8.0;993.99;62.416;44.567577;-123.2747;124.4;NaN;;3.28;6.068;254.9;12 / 21;49019;2018-03-07 17:32:05:476
-0.0144;1.0528;9.8824;-0.0285;1.0422;9.7511;0.0066;8.0E-4;-0.0044;-7.0E-4;-4.0E-4;0.0011;740.0;149.77;17.86;-59.72;279.22;-6.1;0.17;8.0;994.0;62.416;44.567577;-123.2747;124.4;NaN;;3.28;6.068;254.9;12 / 21;49520;2018-03-07 17:32:05:977
-0.0215;1.0528;9.8776;-0.0274;1.0415;9.7511;0.0063;-2.0E-4;-0.0056;1.0E-4;-2.0E-4;6.0E-4;739.0;148.87;17.32;-60.9;278.95;-6.1;0.16;8.0;993.99;62.416;44.567577;-123.2747;124.22;NaN;;0.0;6.068;;12 / 21;50020;2018-03-07 17:32:06:477
-0.0335;1.0457;9.8871;-0.0285;1.0419;9.7511;-7.0E-4;-0.0013;0.0034;3.0E-4;4.0E-4;-7.0E-4;739.0;149.37;18.12;-60.93;279.32;-6.1;0.17;8.0;993.99;62.416;44.567577;-123.2747;124.22;NaN;;0.0;6.068;;12 / 21;50519;2018-03-07 17:32:06:976
-0.0335;1.0576;9.8871;-0.0298;1.0427;9.751;-1.0E-4;0.002;0.0034;3.0E-4;6.0E-4;-1.0E-4;738.0;149.37;17.52;-60.23;279.28;-6.1;0.18;8.0;994.01;62.416;44.567577;-123.2747;124.22;NaN;;0.0;6.068;;12 / 21;51020;2018-03-07 17:32:07:477
-0.0383;1.0624;9.8776;-0.0285;1.0422;9.7511;0.001;0.005;-0.0064;-1.0E-4;0.0;1.0E-4;737.0;149.11;17.88;-60.27;279.28;-6.1;0.17;8.0;993.99;62.416;44.567577;-123.2747;124.22;NaN;;0.0;6.068;;12 / 21;51520;2018-03-07 17:32:07:977
-0.0407;1.0624;9.8728;-0.0291;1.0423;9.7511;-0.0017;-8.0E-4;-0.0042;-5.0E-4;0.0;3.0E-4;738.0;149.4;17.61;-60.25;279.28;-6.1;0.17;8.0;994.0;62.416;44.567577;-123.2747;124.22;NaN;;0.0;6.068;;12 / 21;52020;2018-03-07 17:32:08:477
-0.0479;1.0552;9.8776;-0.0304;1.0432;9.751;-0.0139;0.0039;0.0097;1.0E-4;0.0;-1.0E-4;736.0;149.25;17.09;-60.62;278.95;-6.1;0.18;8.0;994.0;62.416;44.567577;-123.2747;124.22;NaN;;0.0;6.068;;12 / 21;52519;2018-03-07 17:32:08:976
-0.055;0.9021;9.7603;-0.0332;1.0413;9.7512;-0.035;0.0117;0.0485;5.0E-4;-2.0E-4;-1.0E-4;737.0;149.31;17.6;-60.29;279.28;-6.09;0.15;8.0;993.99;62.416;44.567577;-123.2747;124.22;NaN;;0.0;6.068;;12 / 21;53019;2018-03-07 17:32:09:476
-0.0168;1.0337;9.8919;-0.0361;1.0438;9.7509;-0.0176;2.0E-4;0.0081;-5.0E-4;-6.0E-4;9.0E-4;736.0;149.58;17.56;-58.58;279.18;-6.11;0.18;8.0;993.98;62.416;44.567577;-123.2747;124.22;NaN;;0.0;6.068;;12 / 21;53520;2018-03-07 17:32:09:977
-0.0574;1.0146;9.8513;-0.0334;1.0468;9.7506;0.0043;-0.0073;-0.0125;9.0E-4;0.0027;3.0E-4;736.0;150.64;15.61;-55.45;278.24;-6.13;0.2;8.0;993.99;62.416;44.567577;-123.2747;124.22;NaN;;0.0;6.068;;12 / 21;54020;2018-03-07 17:32:10:477
-0.3111;1.809;9.7101;-0.0821;1.2658;9.7243;-0.1403;0.5242;-0.0966;-0.0015;0.0094;0.0288;735.0;149.64;15.43;-55.68;278.47;-7.42;0.48;8.0;993.98;62.416;44.567577;-123.2747;124.22;NaN;;0.0;6.068;;12 / 21;54520;2018-03-07 17:32:10:977
-0.5958;2.7829;9.6072;-0.22;1.5423;9.6821;-0.2688;1.0503;-0.2702;0.0119;0.0332;0.1019;735.0;149.16;16.88;-59.35;280.21;-9.05;1.3;8.0;993.98;62.416;44.567577;-123.2747;124.22;NaN;;0.0;6.068;;12 / 21;55019;2018-03-07 17:32:11:476
-0.2417;2.6393;9.6191;-0.3426;2.3295;9.5198;0.1453;0.3031;-0.0757;0.0025;0.0275;0.1553;734.0;148.96;16.43;-60.6;281.59;-12.43;2.28;8.0;993.98;62.416;44.567577;-123.2747;124.22;NaN;;0.0;6.068;;12 / 21;55521;2018-03-07 17:32:11:978
0.3254;2.5938;9.4612;-0.2538;2.408;9.503;0.6528;0.1048;-0.1608;0.0074;0.0049;0.094;733.0;148.41;14.94;-59.51;281.7;-14.11;1.75;8.0;993.97;62.416;44.567577;-123.2747;123.94;NaN;;4.14;6.068;254.2;12 / 21;56020;2018-03-07 17:32:12:477
0.1699;2.5842;9.5545;-0.1773;2.4484;9.4944;0.2651;-0.0772;0.4508;0.0101;-0.0047;-0.0215;734.0;148.4;14.6;-59.85;281.63;-14.46;1.12;8.0;993.97;62.416;44.567577;-123.2747;123.94;NaN;;4.14;6.068;254.2;12 / 21;56520;2018-03-07 17:32:12:977
0.1507;2.4335;9.6574;-0.1142;2.4718;9.4893;0.3996;-0.0731;-0.122;-0.0027;-0.0098;-0.03;735.0;148.6;14.48;-59.6;281.17;-14.65;0.81;8.0;993.97;62.416;44.567577;-123.2747;124.06;NaN;;9.43;6.068;244.3;12 / 21;57020;2018-03-07 17:32:13:477
-0.0096;2.1416;9.8465;-0.1006;2.4159;9.5039;-0.0217;0.0409;-0.0408;-0.0182;-0.035;-0.0384;733.0;148.24;15.03;-59.98;281.52;-14.5;0.7;8.0;993.98;62.416;44.567577;-123.2747;124.06;NaN;;9.43;6.068;244.3;12 / 21;57519;2018-03-07 17:32:13:976
-0.5073;1.6845;10.7342;-0.0582;2.3394;9.5233;0.1378;-0.1244;-0.3635;-0.0162;0.0135;-0.0429;734.0;148.51;16.15;-59.86;281.44;-13.8;0.35;8.0;994.02;62.416;44.567577;-123.2747;123.8;NaN;;13.9;6.068;246.1;12 / 21;58019;2018-03-07 17:32:14:476
0.0311;1.5673;9.7412;-0.0719;2.1299;9.5723;0.1157;-0.4785;0.0722;-0.0013;-0.0034;-0.0032;731.0;148.23;16.27;-60.29;281.32;-13.12;0.52;8.0;994.03;62.416;44.567577;-123.2747;123.8;NaN;;13.9;6.068;246.1;12 / 21;58519;2018-03-07 17:32:14:976
-0.1795;1.5051;9.7771;-0.0704;1.9824;9.6039;-0.0923;-0.4585;-0.0111;0.0082;0.0033;0.0019;730.0;148.19;16.13;-59.57;280.76;-11.7;0.4;8.0;994.07;62.416;44.567577;-123.2747;123.38;NaN;;17.6;6.068;250.0;12 / 21;59019;2018-03-07 17:32:15:476
-0.3446;1.2634;10.1695;-0.1044;1.7837;9.6425;-0.2355;-0.3859;0.0;-0.0099;0.0139;0.0205;728.0;149.28;16.65;-59.52;280.7;-10.64;0.54;8.0;994.07;62.416;44.567577;-123.2747;123.38;NaN;;17.6;6.068;250.0;12 / 21;59520;2018-03-07 17:32:15:977
-0.2967;1.7515;9.4014;-0.1382;1.6668;9.663;-0.0635;-0.1472;-0.2142;-0.007;0.0029;0.0223;726.0;148.8;16.69;-59.74;280.46;-9.83;0.81;8.0;994.1;62.416;44.567577;-123.2747;123.24;NaN;;19.69;6.068;249.9;12 / 21;60019;2018-03-07 17:32:16:476
-0.3541;1.5649;9.868;-0.1568;1.6705;9.662;-0.0886;-0.0475;-0.0843;0.0068;0.0067;0.0217;725.0;150.62;15.3;-57.01;279.41;-9.78;0.9;8.0;994.1;62.416;44.567577;-123.2747;123.24;NaN;;19.69;6.068;249.9;12 / 21;60519;2018-03-07 17:32:16:976
-0.1125;1.584;9.8369;-0.1328;1.6345;9.6686;0.1496;0.0313;0.0309;-0.0111;0.0047;0.0019;725.0;149.96;14.65;-56.5;279.42;-9.68;0.84;8.0;994.13;62.416;44.567577;-123.2747;122.89;NaN;;21.35;6.068;248.3;12 / 21;61019;2018-03-07 17:32:17:476
-0.1699;1.4309;9.6885;-0.1048;1.6101;9.673;0.0155;-0.1046;-0.1284;0.0103;-0.0112;0.0062;724.0;149.07;16.06;-60.16;279.92;-9.44;0.7;8.0;994.16;62.416;44.567577;-123.2747;122.89;NaN;;21.35;6.068;248.3;12 / 21;61520;2018-03-07 17:32:17:977
-0.1053;1.6319;9.5809;-0.1099;1.6234;9.6707;-0.0797;-0.0626;0.0075;0.0152;-0.0038;0.0182;723.0;148.98;15.96;-60.34;279.92;-9.47;0.68;8.0;994.18;62.416;44.567577;-123.2747;122.84;NaN;;23.58;6.068;247.9;12 / 21;62020;2018-03-07 17:32:18:477
-0.4116;1.6152;9.7173;-0.1385;1.6195;9.671;-0.2542;-0.1413;0.4091;0.0027;0.0102;0.0278;723.0;148.43;15.58;-59.72;280.05;-9.58;0.73;8.0;994.19;62.416;44.567577;-123.2747;122.84;NaN;;23.58;6.068;247.9;12 / 21;62519;2018-03-07 17:32:18:976
-0.682;1.6199;9.9302;-0.2044;1.5992;9.6732;-0.36;-0.0648;-0.0279;-0.006;0.0065;0.0402;722.0;147.93;15.72;-60.16;280.07;-9.42;1.12;8.0;994.22;62.416;44.567577;-123.2747;122.36;NaN;;25.6;6.068;247.3;12 / 21;63019;2018-03-07 17:32:19:476
-0.3541;1.2802;9.7986;-0.2658;1.5579;9.6785;-0.2561;-0.2465;-0.0595;-0.0046;6.0E-4;0.0414;719.0;147.71;15.95;-59.04;280.02;-9.24;1.47;8.0;994.24;62.416;44.567577;-123.2747;122.36;NaN;;25.6;6.068;247.3;12 / 21;63520;2018-03-07 17:32:19:977
-0.67;1.5003;10.5691;-0.2862;1.5289;9.6825;-0.1462;-0.2313;0.0662;-0.0221;0.0059;0.0398;719.0;148.2;14.93;-58.53;279.64;-9.12;1.66;8.0;994.28;62.416;44.567577;-123.2747;121.86;NaN;;27.36;6.068;245.2;12 / 21;64019;2018-03-07 17:32:20:476
-0.3135;1.4237;10.002;-0.3081;1.4778;9.6898;-0.192;-0.1116;0.1448;-5.0E-4;-0.013;0.0437;719.0;146.8;15.01;-58.25;279.52;-8.74;1.79;8.0;994.3;62.416;44.567577;-123.2747;121.86;NaN;;27.36;6.068;245.2;12 / 21;64519;2018-03-07 17:32:20:976
-0.4331;1.3783;9.88;-0.2692;1.4836;9.69;-0.0152;-0.16;-0.1837;-0.0068;0.0133;0.0302;720.0;146.19;15.2;-58.3;279.52;-8.72;1.55;8.0;994.34;62.416;44.567577;-123.2747;121.36;NaN;;28.51;6.068;242.8;12 / 21;65019;2018-03-07 17:32:21:476
-0.3254;1.3376;9.411;-0.284;1.4371;9.6966;-0.2747;-0.1311;-0.405;-0.0011;-0.0098;0.0443;719.0;146.51;15.12;-58.11;279.38;-8.42;1.72;8.0;994.35;62.416;44.567577;-123.2747;121.36;NaN;;28.51;6.068;242.8;12 / 21;65519;2018-03-07 17:32:21:976
-0.9643;1.6487;9.1238;-0.2086;1.4923;9.6902;-0.2911;-0.0027;-0.8492;-1.0E-4;-0.0187;0.0626;719.0;145.82;15.72;-59.24;279.86;-8.61;1.31;8.0;994.4;62.416;44.567577;-123.2747;120.66;NaN;;29.41;6.068;240.7;12 / 21;66019;2018-03-07 17:32:22:476
-0.5073;0.9404;9.4684;-0.26;1.2828;9.7189;-0.2039;-0.3765;-0.5728;-0.0023;0.0328;0.0663;717.0;146.72;15.3;-61.01;279.25;-7.89;1.33;8.0;994.43;62.416;44.567577;-123.2747;120.66;NaN;;29.41;6.068;240.7;12 / 21;66521;2018-03-07 17:32:22:978
-0.3183;0.737;10.6505;-0.3219;1.2145;9.7258;0.2724;-0.6328;0.4759;0.0097;-0.0087;0.0329;715.0;145.92;13.35;-57.72;278.21;-7.19;1.93;8.0;994.47;62.416;44.567577;-123.2747;120.01;NaN;;30.35;6.068;237.9;12 / 21;67020;2018-03-07 17:32:23:477
-0.8519;0.8782;10.2269;-0.3798;1.1845;9.7274;-0.3871;-0.3253;0.3759;-0.0013;0.0255;0.0282;713.0;144.78;13.64;-57.81;278.6;-7.07;1.89;8.0;994.5;62.416;44.567577;-123.2747;120.01;NaN;;30.35;6.068;237.9;12 / 21;67520;2018-03-07 17:32:23:977
-0.4259;0.8279;9.9494;-0.4038;1.1202;9.7341;-0.1122;-0.1508;0.3102;0.0046;0.0047;0.0396;712.0;145.26;11.99;-57.12;277.69;-6.7;2.32;8.0;994.55;62.416;44.567577;-123.2747;119.39;NaN;;29.99;6.068;235.1;12 / 21;68020;2018-03-07 17:32:24:477
-0.5671;1.4046;9.5282;-0.419;1.1626;9.7285;-0.0596;0.1236;-0.1994;-9.0E-4;0.0086;0.041;711.0;144.43;13.35;-58.89;278.27;-6.75;2.4;8.0;994.56;62.416;44.567577;-123.2747;119.39;NaN;;29.99;6.068;235.1;12 / 21;68519;2018-03-07 17:32:24:976
-0.3302;1.5577;9.5354;-0.42;1.2374;9.7192;0.1787;0.2701;-0.2661;-0.0093;0.0043;0.0337;710.0;144.6;13.71;-58.85;278.83;-7.25;2.47;8.0;994.6;62.416;44.567577;-123.2747;119.35;NaN;;29.45;6.068;233.0;12 / 21;69019;2018-03-07 17:32:25:476
-0.5049;1.5003;9.9135;-0.4271;1.2735;9.7142;0.0797;0.2344;-0.0282;-0.0135;0.0041;0.0331;707.0;144.4;12.64;-57.76;278.55;-7.47;2.49;8.0;994.63;62.416;44.567577;-123.2747;119.35;NaN;;29.45;6.068;233.0;12 / 21;69520;2018-03-07 17:32:25:977
-0.0311;1.5864;9.7364;-0.3686;1.3281;9.7093;0.0884;0.2758;-0.0187;-0.0068;-0.0045;0.0172;702.0;143.95;13.52;-57.83;278.98;-7.68;2.25;8.0;994.64;62.416;44.567577;-123.2747;118.81;NaN;;30.56;6.068;231.0;12 / 21;70020;2018-03-07 17:32:26:477
-0.615;1.6223;9.7484;-0.3403;1.3383;9.7089;0.194;0.1667;0.073;0.003;-2.0E-4;0.0172;704.0;144.47;13.34;-58.12;278.58;-7.77;2.03;8.0;994.68;62.416;44.567577;-123.2747;118.81;NaN;;30.56;6.068;231.0;12 / 21;70519;2018-03-07 17:32:26:976
-0.6867;1.5888;9.6024;-0.3897;1.3493;9.7056;-0.1965;0.1507;0.0837;-0.0064;0.0057;0.0439;706.0;143.95;13.35;-58.99;278.74;-7.92;2.24;8.0;994.71;62.416;44.567577;-123.2747;118.23;NaN;;32.26;6.068;229.6;12 / 21;71019;2018-03-07 17:32:27:476
-0.6197;1.1653;9.9709;-0.481;1.3682;9.6988;-0.1282;-0.1542;0.2633;-0.0091;0.0053;0.0457;699.0;143.99;13.32;-59.31;278.94;-8.15;2.72;8.0;994.74;62.416;44.567577;-123.2747;118.23;NaN;;32.26;6.068;229.6;12 / 21;71521;2018-03-07 17:32:27:978
-0.4259;1.4022;10.1767;-0.4677;1.3714;9.699;-0.1518;-0.066;-0.0028;0.0072;0.0057;0.0443;703.0;144.18;12.87;-59.76;278.96;-8.04;2.76;8.0;994.8;62.416;44.567577;-123.2747;117.72;NaN;;34.09;6.068;227.5;12 / 21;72019;2018-03-07 17:32:28:476
-0.6963;1.4668;9.7507;-0.5139;1.3789;9.6956;-0.0925;0.0;-0.2045;-0.0215;0.0228;0.0514;703.0;142.84;11.7;-58.53;278.65;-8.19;2.82;8.0;994.84;62.416;44.567577;-123.2747;117.72;NaN;;34.09;6.068;227.5;12 / 21;72520;2018-03-07 17:32:28:977
-0.6341;1.3041;9.8752;-0.5607;1.3362;9.699;-0.1028;-0.0677;-0.1731;-0.0034;-0.0093;0.0602;700.0;142.95;12.16;-58.69;278.59;-7.83;3.34;8.0;994.89;62.416;44.567577;-123.2747;117.24;NaN;;35.06;6.068;224.9;12 / 21;73019;2018-03-07 17:32:29:476
-0.4642;0.682;10.3609;-0.5554;1.225;9.714;-0.0803;-0.6661;0.2599;-0.0027;-4.0E-4;0.0508;698.0;143.4;12.11;-58.46;278.31;-7.34;3.3;8.0;994.91;62.416;44.567577;-123.2747;117.24;NaN;;35.06;6.068;224.9;12 / 21;73520;2018-03-07 17:32:29:977
0.0479;0.7753;8.8223;-0.5258;1.0247;9.7388;0.066;-0.4646;-0.3186;0.0141;-0.0222;0.049;697.0;142.58;12.38;-59.5;277.72;-5.98;3.2;8.0;994.98;62.416;44.567577;-123.2747;116.58;NaN;;35.86;6.068;221.7;12 / 21;74020;2018-03-07 17:32:30:477
-0.5862;1.2945;9.7986;-0.5288;0.9479;9.7464;0.7806;-0.2984;0.124;0.0351;0.0882;0.0225;686.0;141.76;12.09;-60.13;277.5;-5.5;2.88;8.0;995.01;62.416;44.567577;-123.2747;116.58;NaN;;35.86;6.068;221.7;12 / 21;74520;2018-03-07 17:32:30:977
-0.67;0.8758;12.1196;-0.6404;0.9614;9.7384;-0.0658;-0.2766;0.3209;-0.0017;0.1092;0.0127;694.0;142.08;11.03;-59.2;277.29;-5.63;3.76;8.0;995.05;62.416;44.567577;-123.2747;116.13;NaN;;35.03;6.068;219.2;12 / 21;75019;2018-03-07 17:32:31:476
-0.7011;0.8423;9.7364;-0.7159;0.9997;9.7293;0.0366;0.0501;0.0588;-0.0435;-0.0032;0.0345;692.0;142.49;11.26;-59.8;277.78;-6.37;4.23;8.0;995.08;62.416;44.567577;-123.2747;116.13;NaN;;35.03;6.068;219.2;12 / 21;75520;2018-03-07 17:32:31:977
-0.5838;0.859;9.1717;-0.6921;0.9966;9.7313;-0.0234;0.0452;-0.205;0.0146;-0.0071;0.0404;691.0;142.54;11.47;-60.12;277.43;-5.83;4.07;8.0;995.13;62.416;44.567577;-123.2747;115.44;NaN;;34.38;6.068;217.4;12 / 21;76020;2018-03-07 17:32:32:477
-0.7777;0.7537;10.392;-0.6876;0.9556;9.7357;-0.158;0.0019;0.4747;-0.0308;0.021;0.053;691.0;142.01;10.9;-60.43;277.44;-5.78;3.98;8.0;995.15;62.416;44.567577;-123.2747;115.44;NaN;;34.38;6.068;217.4;12 / 21;76519;2018-03-07 17:32:32:976
-0.658;0.7131;11.0883;-0.6817;0.9892;9.7328;-0.2881;0.0644;-0.2584;0.018;0.02;0.0453;690.0;140.94;11.04;-60.26;277.43;-5.68;3.89;8.0;995.2;62.416;44.567577;-123.2747;114.95;NaN;;34.7;6.068;215.1;12 / 21;77020;2018-03-07 17:32:33:477
-0.8327;0.9547;9.8489;-0.7103;0.9591;9.7338;0.1771;-0.0793;0.5344;0.0119;0.0047;0.0508;687.0;140.14;10.67;-59.5;277.5;-5.61;4.17;8.0;995.22;62.416;44.567577;-123.2747;114.95;NaN;;34.7;6.068;215.1;12 / 21;77520;2018-03-07 17:32:33:977
-0.6221;0.9619;9.7388;-0.736;1.0149;9.7262;-0.039;-0.0786;0.0583;-0.0272;0.0094;0.0581;686.0;140.41;10.5;-60.23;277.36;-6.11;4.35;8.0;995.28;62.416;44.567577;-123.2747;114.17;NaN;;34.67;6.068;212.2;12 / 21;78020;2018-03-07 17:32:34:477
-0.4355;0.8566;8.729;-0.7282;0.9635;9.732;0.2855;-0.0153;-0.7532;0.0087;0.0041;0.0349;684.0;139.98;11.1;-59.79;277.46;-5.48;4.37;8.0;995.32;62.416;44.567577;-123.2747;114.17;NaN;;34.67;6.068;212.2;12 / 21;78519;2018-03-07 17:32:34:976
-0.9452;1.0193;10.0188;-0.7502;0.8752;9.7387;-0.1369;0.0106;0.0569;-0.0113;0.0096;0.0335;682.0;139.62;10.92;-59.38;277.26;-5.16;4.36;8.0;995.37;62.416;44.567577;-123.2747;113.26;NaN;;34.52;6.068;209.2;12 / 21;79019;2018-03-07 17:32:35:476
-0.9763;0.9428;9.5833;-0.7389;0.872;9.7398;0.0313;0.1297;-0.0143;-0.0011;0.0096;0.0439;677.0;139.74;11.46;-58.77;277.22;-5.1;4.31;8.0;995.4;62.416;44.567577;-123.2747;113.26;NaN;;34.52;6.068;209.2;12 / 21;79520;2018-03-07 17:32:35:977
-0.8542;1.1462;9.8848;-0.7977;0.8839;9.7341;-0.0236;-0.1056;-0.0546;-0.0135;-0.0016;0.0549;674.0;139.11;11.44;-59.17;277.4;-5.24;4.71;8.0;995.46;62.416;44.567577;-123.2747;112.63;NaN;;34.6;6.068;207.2;12 / 21;80019;2018-03-07 17:32:36:476
-0.9571;0.95;9.5522;-0.8232;0.87;9.7332;-0.0847;0.0048;-0.0992;-0.0076;0.011;0.0518;641.0;139.64;10.63;-56.31;277.31;-5.13;4.75;8.0;995.5;62.416;44.567577;-123.2747;112.63;NaN;;34.6;6.068;207.2;12 / 21;80519;2018-03-07 17:32:36:976
-0.548;0.7442;9.2339;-0.8658;0.869;9.7296;0.3009;-0.1501;-0.0944;-0.008;0.0092;0.0563;627.0;140.29;11.07;-56.24;277.2;-5.09;5.05;8.0;995.55;62.416;44.567577;-123.2747;111.65;NaN;;35.14;6.068;203.9;12 / 21;81020;2018-03-07 17:32:37:477
-1.0433;0.7513;9.9087;-0.8649;0.8248;9.7336;-0.0418;-0.0272;-0.0834;-0.015;-0.0081;0.052;628.0;137.9;11.37;-58.91;276.86;-4.95;5.13;8.0;995.6;62.416;44.567577;-123.2747;111.65;NaN;;35.14;6.068;203.9;12 / 21;81520;2018-03-07 17:32:37:977
-0.7992;0.9045;9.2363;-0.8689;0.82;9.7336;0.0399;-0.025;-0.2456;-0.0166;6.0E-4;0.0508;640.0;137.53;12.27;-58.91;277.73;-4.84;5.06;8.0;995.68;62.416;44.567577;-123.2747;111.26;NaN;;36.14;6.068;201.6;12 / 21;82019;2018-03-07 17:32:38:476
-0.7992;0.7011;9.923;-0.8117;0.7864;9.7413;0.0245;0.02;-0.2205;-0.0105;-0.0075;0.0447;633.0;136.78;11.93;-59.34;277.61;-4.6;4.76;8.0;995.72;62.416;44.567577;-123.2747;111.26;NaN;;36.14;6.068;201.6;12 / 21;82520;2018-03-07 17:32:38:977
-0.8303;0.9787;10.1456;-0.7679;0.777;9.7456;0.1065;-0.0033;0.2068;-0.007;0.0139;0.0414;601.0;136.72;11.79;-58.86;277.57;-4.59;4.5;8.0;995.78;62.416;44.567577;-123.2747;110.34;NaN;;36.14;6.068;198.5;12 / 21;83020;2018-03-07 17:32:39:477
-0.8901;1.017;9.7795;-0.819;0.8017;9.7394;0.0282;-0.0291;4.0E-4;-0.0109;0.011;0.0484;580.0;135.87;12.92;-59.14;278.15;-4.69;4.81;8.0;995.84;62.416;44.567577;-123.2747;110.34;NaN;;36.14;6.068;198.5;12 / 21;83520;2018-03-07 17:32:39:977
-0.9834;0.8877;9.8369;-0.8605;0.7963;9.7363;-0.0254;0.0932;0.0446;0.0013;0.0086;0.0481;597.0;136.22;12.75;-59.9;278.18;-4.61;5.01;8.0;995.91;62.416;44.567577;-123.2747;109.31;NaN;;36.43;6.068;195.5;12 / 21;84019;2018-03-07 17:32:40:476
-0.9356;0.9882;9.88;-0.8254;0.7939;9.7395;-0.0185;-0.0312;0.0658;0.0011;-0.0016;0.0445;595.0;137.1;12.83;-59.57;278.14;-4.65;5.0;8.0;995.96;62.416;44.567577;-123.2747;109.31;NaN;;36.43;6.068;195.5;12 / 21;84520;2018-03-07 17:32:40:977
-0.7155;0.8614;9.9565;-0.8044;0.8273;9.7385;-0.0956;0.011;0.0663;-0.0044;-0.0024;0.0453;553.0;136.19;12.56;-60.6;278.3;-4.85;4.74;8.0;996.01;62.416;44.567577;-123.2747;108.19;NaN;;37.3;6.068;193.4;12 / 21;85020;2018-03-07 17:32:41:477
-0.9212;0.7729;10.258;-0.7854;0.8396;9.739;-0.0622;0.0321;0.2328;-0.0062;0.0067;0.0465;630.0;135.7;12.59;-59.56;277.82;-4.86;4.63;8.0;996.07;62.416;44.567577;-123.2747;108.19;NaN;;37.3;6.068;193.4;12 / 21;85519;2018-03-07 17:32:41:976
-0.6724;0.7322;10.2939;-0.7939;0.8263;9.7395;-0.0676;-0.1342;0.1264;-0.0015;0.0198;0.052;652.0;135.63;12.46;-59.69;277.8;-4.84;4.56;8.0;996.16;62.416;44.567577;-123.2747;106.85;NaN;;38.05;6.068;190.8;12 / 21;86020;2018-03-07 17:32:42:477
-0.7513;0.5336;10.0188;-0.7937;0.784;9.743;0.0465;-0.3366;0.2231;-0.0082;-0.003;0.0571;638.0;134.52;12.27;-60.27;277.74;-4.59;4.66;8.0;996.23;62.416;44.567577;-123.2747;106.85;NaN;;38.05;6.068;190.8;12 / 21;86520;2018-03-07 17:32:42:977
-0.8542;0.5862;10.1312;-0.8184;0.6641;9.7499;-0.0999;-0.1599;-0.0631;-0.0034;-0.0043;0.0567;644.0;134.42;12.29;-58.81;277.54;-4.15;4.72;8.0;996.3;62.416;44.567577;-123.2747;105.46;NaN;;38.63;6.068;187.3;12 / 21;87020;2018-03-07 17:32:43:477
-0.7561;0.2369;9.4564;-0.8131;0.6311;9.7525;0.0924;-0.1344;-0.1328;-0.005;0.0071;0.0526;667.0;132.79;13.02;-58.61;277.8;-3.77;4.75;8.0;996.37;62.416;44.567577;-123.2747;105.46;NaN;;38.63;6.068;187.3;12 / 21;87520;2018-03-07 17:32:43:977
-0.7155;0.2584;10.3561;-0.833;0.5345;9.7566;0.1431;-0.3079;0.2363;-0.0017;0.0043;0.0492;669.0;133.71;13.3;-59.58;277.44;-3.15;4.88;8.0;996.47;62.416;44.567577;-123.2747;104.72;NaN;;38.48;6.068;184.4;12 / 21;88019;2018-03-07 17:32:44:476
-0.9165;-0.0838;9.8177;-0.8577;0.5033;9.7561;-0.0082;-0.375;-0.246;-0.0101;-0.0014;0.0469;667.0;133.48;12.67;-58.16;277.43;-3.01;4.99;8.0;996.51;62.416;44.567577;-123.2747;104.72;NaN;;38.48;6.068;184.4;12 / 21;88521;2018-03-07 17:32:44:978
-0.7849;0.0646;10.2748;-0.8807;0.4334;9.7574;0.2507;-0.4333;0.3252;-0.0103;0.0088;0.0384;664.0;133.0;13.22;-58.02;277.79;-2.7;5.15;8.0;996.6;62.416;44.567577;-123.2747;103.53;NaN;;37.22;6.068;181.8;12 / 21;89020;2018-03-07 17:32:45:477
-0.6054;-0.2919;9.8608;-0.8469;0.3132;9.765;0.2628;-0.4965;0.226;0.0056;0.008;0.0357;645.0;132.42;13.7;-57.47;277.33;-1.91;5.0;8.0;996.64;62.416;44.567577;-123.2747;103.53;NaN;;37.22;6.068;181.8;12 / 21;89520;2018-03-07 17:32:45:977
-0.4451;0.0622;9.7914;-0.7689;0.2922;9.7721;0.1142;-0.2464;-0.1724;0.0034;-0.0114;0.0351;566.0;131.78;14.09;-57.34;277.19;-1.72;4.61;8.0;996.74;62.416;44.567577;-123.2747;102.37;NaN;;35.17;6.068;179.5;12 / 21;90019;2018-03-07 17:32:46:476
-0.7442;-0.1914;9.9589;-0.7401;0.2662;9.7751;0.3191;-0.3395;0.1751;-0.0123;0.0012;0.0331;532.0;131.49;14.22;-58.13;277.15;-1.56;4.33;8.0;996.79;62.416;44.567577;-123.2747;102.37;NaN;;35.17;6.068;179.5;12 / 21;90519;2018-03-07 17:32:46:976
-0.6317;-0.1771;9.8106;-0.7129;0.1705;9.7792;0.2673;-0.3435;-0.0104;0.0062;0.0208;0.0278;580.0;131.28;14.58;-57.15;277.35;-1.13;4.21;8.0;996.86;62.416;44.567577;-123.2747;101.43;NaN;;33.05;6.068;177.3;12 / 21;91019;2018-03-07 17:32:47:476
-0.3159;0.3206;7.602;-0.6366;0.4671;9.7748;0.422;0.0071;-2.362;0.0661;0.0128;0.0298;602.0;130.45;14.1;-58.62;277.78;-2.73;3.73;8.0;996.92;62.416;44.567577;-123.2747;101.43;NaN;;33.05;6.068;177.3;12 / 21;91520;2018-03-07 17:32:47:977
-0.0431;0.3733;7.4321;-0.7008;0.0492;9.7815;-0.0686;0.2204;-0.4774;-0.0315;0.0619;0.0313;605.0;130.47;14.05;-59.12;276.6;-0.47;3.8;8.0;997.0;62.416;44.567577;-123.2747;100.71;NaN;;30.42;6.068;175.5;12 / 21;92020;2018-03-07 17:32:48:477
-0.8614;1.8209;8.7553;-0.7864;0.5117;9.7617;0.0372;1.4709;-0.931;0.0571;0.001;0.0557;590.0;130.66;13.35;-59.27;276.96;-1.96;4.59;8.0;997.02;62.416;44.567577;-123.2747;100.71;NaN;;30.42;6.068;175.5;12 / 21;92519;2018-03-07 17:32:48:976
-0.7825;1.072;9.6072;-0.8115;0.5264;9.7588;0.0713;0.7285;-0.1884;-1.0E-4;0.0094;0.0528;563.0;130.5;13.15;-59.51;277.56;-2.89;4.71;8.0;997.09;62.416;44.567577;-123.2747;100.01;NaN;;30.02;6.068;172.8;12 / 21;93020;2018-03-07 17:32:49:477
-0.8829;1.3663;10.3681;-0.8331;0.684;9.7472;0.0803;0.4782;0.0874;-0.0038;-0.0018;0.0551;577.0;130.08;13.15;-58.78;278.09;-3.88;4.88;8.0;997.11;62.416;44.567577;-123.2747;100.01;NaN;;30.02;6.068;172.8;12 / 21;93519;2018-03-07 17:32:49:976
-0.6724;1.2897;9.4277;-0.8639;0.9006;9.7269;-0.0671;0.3123;-0.0131;-0.0119;-0.0089;0.0549;580.0;130.83;13.66;-60.26;278.99;-4.79;5.08;8.0;997.18;62.416;44.567577;-123.2747;99.2;NaN;;32.36;6.068;170.3;12 / 21;94019;2018-03-07 17:32:50:476
-0.7968;0.8447;9.6383;-0.8078;0.955;9.7266;0.1505;-0.057;-0.2946;0.0017;0.0033;0.05;595.0;130.55;12.05;-60.09;278.51;-5.57;4.76;8.0;997.23;62.416;44.567577;-123.2747;99.2;NaN;;32.36;6.068;170.3;12 / 21;94520;2018-03-07 17:32:50:977
-0.0742;-0.0814;8.6668;-0.8147;0.8646;9.7344;0.1666;-0.0232;-0.1397;-0.0072;0.0078;0.0479;645.0;131.08;12.29;-58.18;278.16;-5.07;4.77;8.0;997.31;62.416;44.567577;-123.2747;98.44;NaN;;34.56;6.068;167.4;12 / 21;95020;2018-03-07 17:32:51:477
-0.5408;0.7753;9.0832;-0.8287;0.8833;9.7316;0.0903;-0.0209;-0.3934;-0.0174;-0.0028;0.0351;658.0;129.02;15.01;-57.21;279.65;-5.17;4.87;8.0;997.36;62.416;44.567577;-123.2747;98.44;NaN;;34.56;6.068;167.4;12 / 21;95519;2018-03-07 17:32:51:976
-0.6437;0.6126;9.3727;-0.7904;0.8596;9.7369;-0.158;-0.1571;0.0907;0.0076;-0.0179;0.0353;660.0;129.55;14.82;-58.31;279.48;-4.91;4.82;8.0;997.45;62.416;44.567577;-123.2747;97.04;NaN;;35.46;6.068;164.4;12 / 21;96019;2018-03-07 17:32:52:476
-0.4164;0.9476;8.8295;-0.7087;0.8786;9.7415;0.3483;-0.0792;-0.9796;0.0255;-0.0262;0.05;661.0;129.67;13.39;-57.21;278.56;-5.14;4.16;8.0;997.5;62.416;44.567577;-123.2747;97.04;NaN;;35.46;6.068;164.4;12 / 21;96520;2018-03-07 17:32:52:977
-1.1174;0.9715;10.3944;-0.7791;0.7937;9.7434;-0.0184;-3.0E-4;-0.0495;0.0311;-0.0012;0.0394;660.0;128.82;15.28;-57.23;279.21;-4.4;4.59;8.0;997.57;62.416;44.567577;-123.2747;95.44;NaN;;36.58;6.068;162.6;12 / 21;97020;2018-03-07 17:32:53:477
-0.6748;0.6365;9.5067;-0.6888;0.8328;9.7469;-0.0643;-0.0268;-0.0639;-0.0066;-0.0055;0.0449;660.0;127.65;15.73;-57.56;279.92;-4.87;4.04;8.0;997.61;62.416;44.567577;-123.2747;95.44;NaN;;36.58;6.068;162.6;12 / 21;97520;2018-03-07 17:32:53:977
-0.9763;0.7968;10.0546;-0.7175;0.8191;9.746;-0.1775;-0.0599;-0.027;0.0019;0.0057;0.0549;626.0;128.16;15.42;-57.72;279.89;-4.81;4.05;8.0;997.71;62.416;44.567577;-123.2747;93.74;NaN;;37.48;6.068;160.6;12 / 21;98020;2018-03-07 17:32:54:477
-0.67;0.6293;9.746;-0.8236;0.7611;9.7423;-0.0439;-0.0853;0.02;-5.0E-4;0.0302;0.0573;562.0;127.65;14.4;-57.68;278.93;-4.45;4.83;8.0;997.77;62.416;44.567577;-123.2747;93.74;NaN;;37.48;6.068;160.6;12 / 21;98519;2018-03-07 17:32:54:976
-1.2299;0.3302;9.7723;-0.9346;0.7349;9.7343;-0.2277;-0.2837;0.1683;-0.0107;0.0202;0.0762;587.0;126.92;15.53;-55.01;279.87;-4.42;5.38;8.0;997.86;62.416;44.567577;-123.2747;92.54;NaN;;38.34;6.068;157.5;12 / 21;99019;2018-03-07 17:32:55:476
-1.4309;0.524;10.1695;-1.0185;0.6549;9.7316;-0.3808;-0.2579;-0.0598;-0.0087;-2.0E-4;0.0811;578.0;126.64;17.59;-54.91;280.6;-3.88;5.98;8.0;997.92;62.416;44.567577;-123.2747;92.54;NaN;;38.34;6.068;157.5;12 / 21;99519;2018-03-07 17:32:55:976
-0.7657;0.5623;10.2389;-0.983;0.6802;9.7335;0.1725;-0.2487;0.1998;0.0093;-2.0E-4;0.0632;564.0;125.83;18.19;-55.8;280.7;-3.9;5.83;8.0;998.01;62.416;44.567577;-123.2747;91.93;NaN;;37.87;6.068;153.2;12 / 21;100020;2018-03-07 17:32:56:477
-0.3757;0.481;9.6239;-0.9454;0.6806;9.7372;-0.0253;-0.1397;-0.061;0.0027;-0.0181;0.042;581.0;126.66;16.53;-54.15;280.08;-3.98;5.55;8.0;998.06;62.416;44.567577;-123.2747;91.93;NaN;;37.87;6.068;153.2;12 / 21;100519;2018-03-07 17:32:56:976
-0.4714;0.402;10.2221;-0.8603;0.5673;9.7524;0.3589;-0.2589;0.2918;-0.016;-0.0179;0.0429;601.0;126.37;16.33;-51.33;279.41;-3.7;5.38;8.0;998.15;62.416;44.567577;-123.2747;90.62;NaN;;38.41;6.068;150.2;12 / 21;101020;2018-03-07 17:32:57:477
-0.1364;0.5121;9.8345;-0.7282;0.681;9.7558;-0.031;-0.1459;0.0873;0.0162;-0.0533;0.0382;618.0;124.84;19.75;-52.71;281.37;-3.98;4.27;8.0;998.21;62.416;44.567577;-123.2747;90.62;NaN;;38.41;6.068;150.2;12 / 21;101521;2018-03-07 17:32:57:978
0.2991;0.3996;9.3296;-0.6015;0.6205;9.7685;0.2569;-0.2475;-0.4965;-0.0105;0.0045;0.0319;620.0;123.73;20.31;-53.85;281.27;-3.73;3.6;8.0;998.28;62.416;44.567577;-123.2747;89.92;NaN;;39.1;6.068;147.0;12 / 21;102020;2018-03-07 17:32:58:477
-0.0814;0.5121;9.7962;-0.5203;0.626;9.7728;0.4458;-0.0817;-0.0341;-0.0078;0.009;0.0253;632.0;123.84;20.77;-55.92;281.69;-3.71;3.06;8.0;998.34;62.416;44.567577;-123.2747;89.92;NaN;;39.1;6.068;147.0;12 / 21;102520;2018-03-07 17:32:58:977
-0.8423;0.402;10.9137;-0.5452;0.6378;9.7707;-0.06;0.2714;0.6136;0.0213;0.0084;0.027;633.0;124.02;21.61;-55.66;281.68;-3.72;3.2;8.0;998.42;62.416;44.567577;-123.2747;88.8;NaN;;38.23;6.068;145.6;12 / 21;103020;2018-03-07 17:32:59:477
-0.3709;0.6508;10.5715;-0.5203;0.7414;9.7647;0.2127;0.0317;0.3787;0.0095;-0.012;0.0231;626.0;124.1;20.47;-56.08;281.54;-4.34;3.05;8.0;998.46;62.416;44.567577;-123.2747;88.8;NaN;;38.23;6.068;145.6;12 / 21;103520;2018-03-07 17:32:59:977
0.0168;0.6389;10.4662;-0.4777;0.7653;9.7651;0.1058;-0.0375;0.3011;0.0072;2.0E-4;0.0133;633.0;123.43;20.29;-55.54;281.56;-4.45;2.83;8.0;998.53;62.416;44.567577;-123.2747;87.78;NaN;;38.23;6.068;144.2;12 / 21;104019;2018-03-07 17:33:00:476
-0.1723;1.0074;9.8034;-0.3907;0.8099;9.7653;0.2354;0.0751;0.1638;-0.0056;0.0196;0.006;617.0;123.08;20.63;-55.31;282.1;-4.74;2.29;8.0;998.58;62.416;44.567577;-123.2747;87.78;NaN;;38.23;6.068;144.2;12 / 21;104519;2018-03-07 17:33:00:976
-0.2776;1.0074;9.8297;-0.3223;0.8679;9.7628;0.2075;0.0394;0.1174;0.016;-0.0224;0.0152;592.0;123.86;20.81;-55.26;282.07;-4.99;2.04;8.0;998.67;62.416;44.567577;-123.2747;87.31;NaN;;39.1;6.068;143.5;12 / 21;105020;2018-03-07 17:33:01:477
0.1077;1.3567;10.2915;-0.3016;0.8842;9.7621;0.3058;0.1698;0.2996;0.0137;0.0242;0.0068;565.0;123.53;20.24;-56.48;281.67;-5.13;1.72;8.0;998.72;62.416;44.567577;-123.2747;87.31;NaN;;39.1;6.068;143.5;12 / 21;105520;2018-03-07 17:33:01:977
-0.2393;1.2419;9.8034;-0.2707;0.9832;9.7535;0.2796;0.1457;-0.0119;-0.0215;-0.0106;-0.0015;560.0;122.78;19.94;-56.98;282.06;-5.74;1.56;8.0;998.78;62.416;44.567577;-123.2747;86.99;NaN;;39.17;6.068;143.4;12 / 21;106020;2018-03-07 17:33:02:477
0.2991;1.1892;9.9087;-0.2021;1.0696;9.746;0.48;0.1324;-0.1662;0.0089;0.0059;-0.0062;577.0;123.65;20.04;-56.6;282.12;-6.26;1.19;8.0;998.83;62.416;44.567577;-123.2747;86.99;NaN;;39.17;6.068;143.4;12 / 21;106523;2018-03-07 17:33:02:980
-0.0718;0.6126;9.8201;-0.1701;1.1667;9.7355;-0.1876;-0.008;0.105;0.0144;-0.0348;-0.006;595.0;124.1;18.73;-55.71;281.77;-6.58;1.21;8.0;998.89;62.416;44.567577;-123.2747;86.19;NaN;;39.6;6.068;142.7;12 / 21;107019;2018-03-07 17:33:03:476
-0.0383;1.2323;10.2604;-0.1097;1.1564;9.7376;0.1644;-0.2523;0.4532;-3.0E-4;-0.0183;-0.0038;612.0;122.9;20.39;-56.13;282.31;-6.8;0.77;8.0;998.93;62.416;44.567577;-123.2747;86.19;NaN;;39.6;6.068;142.7;12 / 21;107521;2018-03-07 17:33:03:978
0.5168;1.206;9.7843;-0.0418;1.2215;9.7302;0.5428;-0.0173;-0.1981;-0.0074;-0.0034;-0.0123;631.0;122.76;19.55;-56.44;282.33;-7.05;0.34;8.0;998.96;62.416;44.567577;-123.2747;85.52;NaN;;41.4;6.068;142.9;12 / 21;108020;2018-03-07 17:33:04:477
-0.1244;1.3137;10.2676;-0.0286;1.2306;9.7291;0.2355;0.0689;-0.4602;-0.004;0.013;-0.0123;630.0;123.07;18.91;-56.64;281.98;-7.26;0.11;8.0;999.02;62.416;44.567577;-123.2747;85.52;NaN;;41.4;6.068;142.9;12 / 21;108519;2018-03-07 17:33:04:976
0.2345;1.8018;8.9659;-0.007;1.2405;9.7279;-0.2843;0.0811;-0.3214;0.0044;-0.0079;-0.0135;626.0;124.28;19.27;-56.87;281.9;-7.28;0.15;8.0;999.07;62.416;44.567577;-123.2747;85.27;NaN;;41.76;6.068;143.8;12 / 21;109020;2018-03-07 17:33:05:477
0.3183;0.9404;9.935;0.0346;1.2174;9.7307;0.2036;-0.2437;0.3616;0.0445;-0.0122;-0.0188;621.0;123.27;18.69;-58.3;281.92;-7.13;-0.2;8.0;999.11;62.416;44.567577;-123.2747;85.27;NaN;;41.76;6.068;143.8;12 / 21;109520;2018-03-07 17:33:05:977
0.2847;0.5432;10.1719;0.0989;1.2229;9.7296;0.1806;-0.3827;0.2244;-0.0341;-0.0161;-0.0258;612.0;123.82;17.71;-58.78;281.78;-8.0;-0.36;8.0;999.13;62.416;44.567577;-123.2747;84.63;NaN;;44.32;6.068;142.1;12 / 21;110020;2018-03-07 17:33:06:477
0.2225;1.0983;10.2317;0.1468;1.2172;9.7297;0.1196;-0.2768;-0.0139;-0.0027;-0.0049;-0.0292;615.0;123.8;16.48;-58.57;280.42;-7.13;-0.86;8.0;999.18;62.416;44.567577;-123.2747;84.63;NaN;;44.32;6.068;142.1;12 / 21;110520;2018-03-07 17:33:06:977
1.0744;0.9763;9.7316;0.2882;1.1378;9.7362;0.5507;-0.1504;-0.1998;0.0221;-0.0049;-0.0697;623.0;123.6;16.27;-58.35;280.02;-6.59;-1.53;8.0;999.22;62.416;44.567577;-123.2747;84.05;NaN;;42.55;6.068;146.2;12 / 21;111020;2018-03-07 17:33:07:477
0.3398;1.3902;9.2243;0.3669;1.1714;9.7295;0.5676;0.0887;-0.2181;-0.0323;-0.0124;-0.0695;624.0;123.68;15.49;-56.89;279.52;-6.86;-2.16;8.0;999.24;62.416;44.567577;-123.2747;84.05;NaN;;42.55;6.068;146.2;12 / 21;111519;2018-03-07 17:33:07:976
0.7346;1.1892;9.5833;0.408;1.1702;9.728;0.241;0.0434;0.116;0.0058;-0.012;-0.0695;623.0;124.96;15.72;-57.2;279.82;-6.78;-2.31;8.0;999.28;62.416;44.567577;-123.2747;83.36;NaN;;41.62;6.068;149.3;12 / 21;112019;2018-03-07 17:33:08:476
0.6532;1.0504;9.7962;0.4505;1.1971;9.7229;0.2268;-0.078;-0.1404;0.0211;0.0047;-0.0591;616.0;124.66;14.19;-56.96;278.98;-7.01;-2.65;8.0;999.31;62.416;44.567577;-123.2747;83.36;NaN;;41.62;6.068;149.3;12 / 21;112521;2018-03-07 17:33:08:978
0.6126;1.0648;10.2748;0.4707;1.2363;9.717;0.0099;0.0211;-0.1318;-0.0038;-0.0146;-0.0467;619.0;125.78;14.63;-56.0;278.91;-7.15;-2.6;8.0;999.35;62.416;44.567577;-123.2747;82.93;NaN;;40.9;6.068;153.1;12 / 21;113019;2018-03-07 17:33:09:476
0.7968;1.2156;9.8465;0.5054;1.2046;9.7192;-0.0291;0.0238;0.0624;0.0044;-2.0E-4;-0.0473;620.0;124.87;14.75;-55.62;279.35;-7.09;-2.87;8.0;999.38;62.416;44.567577;-123.2747;82.93;NaN;;40.9;6.068;153.1;12 / 21;113519;2018-03-07 17:33:09:976
0.4307;0.9906;9.3631;0.4934;1.1999;9.7205;0.1318;-0.048;-0.0346;0.0076;0.0118;-0.0449;607.0;125.83;13.76;-56.54;278.87;-7.07;-2.96;8.0;999.41;62.416;44.567577;-123.2747;82.15;NaN;;41.4;6.068;155.1;12 / 21;114019;2018-03-07 17:33:10:476
0.3709;1.4046;9.2937;0.4583;1.2441;9.7166;0.0125;-0.0876;-0.3194;0.0133;-0.0067;-0.0376;611.0;126.37;14.3;-56.46;278.91;-7.2;-2.71;8.0;999.44;62.416;44.567577;-123.2747;82.15;NaN;;41.4;6.068;155.1;12 / 21;114520;2018-03-07 17:33:10:977
-0.2656;1.1246;10.325;0.3693;1.2398;9.7209;-0.1385;0.0015;-0.2994;1.0E-4;0.0053;-0.0337;611.0;126.21;14.22;-57.18;279.02;-7.21;-2.4;8.0;999.48;62.416;44.567577;-123.2747;81.38;NaN;;41.51;6.068;157.3;12 / 21;115019;2018-03-07 17:33:11:476
0.4307;0.9547;9.7603;0.3712;1.2206;9.7233;-0.3238;-0.103;-0.0925;-0.0121;-0.0429;-0.0221;608.0;127.37;13.66;-57.43;278.97;-7.15;-2.19;8.0;999.52;62.416;44.567577;-123.2747;81.38;NaN;;41.51;6.068;157.3;12 / 21;115519;2018-03-07 17:33:11:976
0.536;0.5025;10.483;0.4651;1.1384;9.7292;-0.0148;-0.3699;0.2998;0.0111;0.0031;-0.0339;622.0;126.71;14.54;-56.66;278.69;-6.79;-2.72;8.0;999.57;62.416;44.567577;-123.2747;80.86;NaN;;42.05;6.068;159.9;12 / 21;116020;2018-03-07 17:33:12:477
0.5121;0.5934;10.1815;0.4965;1.092;9.733;0.1376;-0.2602;8.0E-4;-0.004;-0.011;-0.0424;618.0;126.63;14.08;-57.13;278.6;-6.48;-2.88;8.0;999.6;62.416;44.567577;-123.2747;80.86;NaN;;42.05;6.068;159.9;12 / 21;116520;2018-03-07 17:33:12:977
0.5192;1.1797;9.0712;0.5372;1.0478;9.7357;-0.0075;-0.0983;-0.3608;-0.0023;-0.0077;-0.0443;625.0;126.7;14.25;-57.89;278.48;-6.15;-3.12;8.0;999.66;62.416;44.567577;-123.2747;79.97;NaN;;41.72;6.068;161.9;12 / 21;117019;2018-03-07 17:33:13:476
0.5456;0.2895;9.8991;0.5497;1.0424;9.7356;0.0656;-0.1036;-0.1223;-0.0168;-0.0112;-0.0441;623.0;127.07;13.86;-57.9;278.45;-6.1;-3.23;8.0;999.68;62.416;44.567577;-123.2747;79.97;NaN;;41.72;6.068;161.9;12 / 21;117519;2018-03-07 17:33:13:976
-0.0215;0.1125;10.3872;0.5229;0.8744;9.7536;-0.013;-0.7751;0.0568;5.0E-4;0.0114;-0.0467;633.0;127.55;13.95;-59.14;278.17;-5.42;-3.2;8.0;999.75;62.416;44.567577;-123.2747;78.86;NaN;;40.39;6.068;164.5;12 / 21;118019;2018-03-07 17:33:14:476
0.5097;0.201;9.6335;0.5369;0.7546;9.7628;-0.0824;-0.7005;0.2679;-0.017;0.0075;-0.041;634.0;128.24;13.23;-59.15;277.37;-4.41;-3.15;8.0;999.78;62.416;44.567577;-123.2747;78.86;NaN;;40.39;6.068;164.5;12 / 21;118520;2018-03-07 17:33:14:977
0.5264;-0.1388;10.3681;0.5266;0.6491;9.771;-0.2421;-0.7074;0.4039;-0.0013;-0.0073;-0.027;624.0;128.94;13.74;-59.92;277.54;-3.8;-3.08;8.0;999.84;62.416;44.567577;-123.2747;77.84;NaN;;38.56;6.068;167.2;12 / 21;119019;2018-03-07 17:33:15:476
0.1555;-0.2177;10.3466;0.4683;0.5499;9.78;-0.2945;-0.4829;-0.0761;-0.0105;-2.0E-4;-0.0256;618.0;129.38;12.82;-59.84;276.97;-3.35;-2.78;8.0;999.88;62.416;44.567577;-123.2747;77.84;NaN;;38.56;6.068;167.2;12 / 21;119520;2018-03-07 17:33:15:977
1.0528;1.1342;6.2285;0.5112;0.9146;9.7505;-0.0832;0.2531;-2.4863;-0.2308;-0.0356;-0.0368;599.0;129.17;10.02;-58.41;276.73;-5.07;-2.98;8.0;999.95;62.416;44.567577;-123.2747;77.06;NaN;;35.46;6.068;169.5;12 / 21;120020;2018-03-07 17:33:16:477
0.5121;-0.1699;13.0935;0.4405;0.1306;9.7959;-0.4159;0.0642;3.6663;-0.173;-0.0106;-0.0286;622.0;131.51;11.81;-56.31;275.38;-0.76;-2.57;8.0;999.97;62.416;44.567577;-123.2747;77.06;NaN;;35.46;6.068;169.5;12 / 21;120520;2018-03-07 17:33:16:977
0.3159;0.8877;10.0714;0.4292;0.7394;9.7693;-0.3463;0.84;-0.1827;-0.11;0.0104;-0.0347;610.0;130.96;11.59;-55.08;276.7;-4.3;-2.51;8.0;1000.01;62.416;44.567577;-123.2747;76.37;NaN;;35.28;6.068;171.3;12 / 21;121020;2018-03-07 17:33:17:477
0.0598;1.3376;9.4852;0.4282;0.7323;9.7699;-0.1351;0.6033;-0.0889;0.0168;-0.0032;-0.0255;617.0;130.25;12.9;-56.76;277.23;-4.28;-2.51;8.0;1000.05;62.416;44.567577;-123.2747;76.37;NaN;;35.28;6.068;171.3;12 / 21;121520;2018-03-07 17:33:17:977
0.0144;0.9954;10.7677;0.3954;0.8109;9.7651;-0.3559;0.3727;0.333;-0.0093;-0.0039;-0.0076;627.0;130.21;12.56;-57.92;277.44;-4.69;-2.34;8.0;1000.08;62.416;44.567577;-123.2747;75.99;NaN;;33.95;6.068;172.6;12 / 21;122020;2018-03-07 17:33:18:477
0.3374;1.3232;9.9972;0.3747;0.8408;9.7634;-0.388;0.5183;-0.2212;-0.0146;0.0047;-0.008;636.0;129.9;12.52;-57.98;277.55;-4.96;-2.24;8.0;1000.14;62.416;44.567577;-123.2747;75.99;NaN;;33.95;6.068;172.6;12 / 21;122520;2018-03-07 17:33:18:977
0.3374;1.2467;9.3224;0.3483;0.8938;9.7596;-0.046;0.2098;0.0218;-0.0286;0.0334;-0.0127;635.0;129.45;12.97;-58.01;277.77;-5.36;-2.19;8.0;1000.17;62.416;44.567577;-123.2747;75.89;NaN;;34.56;6.068;172.3;12 / 21;123019;2018-03-07 17:33:19:476
-0.0335;1.529;9.9446;0.1815;0.9718;9.7567;-0.2398;0.4266;-0.0983;-0.0182;-0.0102;-0.006;635.0;130.48;13.06;-58.5;277.9;-5.46;-1.2;8.0;1000.2;62.416;44.567577;-123.2747;75.89;NaN;;34.56;6.068;172.3;12 / 21;123519;2018-03-07 17:33:19:976
-0.1866;1.1797;9.8632;0.2023;1.0962;9.7431;-0.1378;0.5918;-0.0802;0.027;-0.0098;-0.0087;644.0;130.61;12.25;-58.52;278.1;-5.82;-1.13;8.0;1000.26;62.416;44.567577;-123.2747;75.08;NaN;;34.09;6.068;175.0;12 / 21;124019;2018-03-07 17:33:20:476
-0.3063;0.6724;9.3129;0.2482;1.1109;9.7404;-0.0585;0.6009;-0.245;0.0921;-0.0069;-0.0351;647.0;130.38;12.8;-58.81;278.32;-6.5;-1.46;8.0;1000.27;62.416;44.567577;-123.2747;75.08;NaN;;34.09;6.068;175.0;12 / 21;124519;2018-03-07 17:33:20:976
0.6221;1.3615;8.7936;0.2077;1.1621;9.7353;0.129;0.2004;-0.8956;-0.0233;-0.0014;0.0076;643.0;129.96;11.52;-58.15;278.01;-6.81;-1.22;8.0;1000.29;62.416;44.567577;-123.2747;74.23;NaN;;36.25;6.068;174.7;12 / 21;125020;2018-03-07 17:33:21:477
-0.402;1.4812;9.3105;0.0975;1.1961;9.7329;-0.2959;0.0896;0.3045;0.0333;0.0336;0.0105;630.0;130.06;12.72;-58.52;278.56;-6.81;-0.77;8.0;1000.35;62.416;44.567577;-123.2747;74.23;NaN;;36.25;6.068;174.7;12 / 21;125520;2018-03-07 17:33:21:977
-0.2608;1.2778;10.1145;0.0846;1.1417;9.7396;-0.0403;0.0189;0.3058;-0.0156;0.0039;0.0103;631.0;129.87;12.28;-58.39;278.09;-6.69;-0.5;8.0;1000.39;62.416;44.567577;-123.2747;73.65;NaN;;37.3;6.068;174.5;12 / 21;126019;2018-03-07 17:33:22:476
0.2465;1.017;10.4471;0.0483;1.2236;9.7299;-0.2854;0.1952;0.0143;-1.0E-4;-0.0216;0.0148;636.0;129.51;12.82;-58.39;278.7;-7.07;-0.34;8.0;1000.44;62.416;44.567577;-123.2747;73.65;NaN;;37.3;6.068;174.5;12 / 21;126520;2018-03-07 17:33:22:977
-0.1412;1.0887;10.0427;0.0394;1.2407;9.7278;-0.2669;0.0185;0.3732;-0.0078;0.0041;0.0091;625.0;130.68;12.51;-58.36;278.74;-7.27;-0.23;8.0;1000.49;62.416;44.567577;-123.2747;72.77;NaN;;40.25;6.068;173.3;12 / 21;127019;2018-03-07 17:33:23:476
-0.2273;1.541;9.6263;0.0039;1.2724;9.7238;-0.0383;-0.0503;0.4886;0.0038;0.0023;0.0087;618.0;129.85;12.05;-59.15;278.53;-7.43;-0.08;8.0;1000.51;62.416;44.567577;-123.2747;72.77;NaN;;40.25;6.068;173.3;12 / 21;127520;2018-03-07 17:33:23:977
0.0742;1.2706;9.2267;-0.0443;1.2874;9.7217;0.115;-0.004;0.0884;0.0032;0.0106;0.0019;631.0;130.63;12.33;-58.75;278.58;-7.54;0.26;8.0;1000.58;62.416;44.567577;-123.2747;72.43;NaN;;41.29;6.068;172.0;12 / 21;128020;2018-03-07 17:33:24:477
-0.3326;0.7633;11.6507;-0.0426;1.2969;9.7204;-0.0386;-0.3332;0.3001;-0.0013;-0.0012;-0.0119;637.0;131.16;12.75;-58.9;279.09;-7.72;0.32;8.0;1000.59;62.416;44.567577;-123.2747;72.43;NaN;;41.29;6.068;172.0;12 / 21;128520;2018-03-07 17:33:24:977
-0.2871;0.8949;10.2772;0.0233;1.1886;9.7343;0.22;-0.4516;0.6368;-0.0893;0.0082;-0.0215;637.0;129.52;11.85;-58.89;278.76;-7.99;-0.13;8.0;1000.63;62.416;44.567577;-123.2747;71.5;NaN;;40.54;6.068;173.7;12 / 21;129020;2018-03-07 17:33:25:477
0.3709;1.151;10.2796;0.0746;1.3045;9.7192;0.2688;-0.1175;0.2275;0.0292;-0.0081;-0.0272;633.0;130.1;11.44;-58.39;278.08;-7.61;-0.32;8.0;1000.68;62.416;44.567577;-123.2747;71.5;NaN;;40.54;6.068;173.7;12 / 21;129519;2018-03-07 17:33:25:976
0.4498;0.8207;11.0764;0.1152;1.3376;9.7143;0.2221;-0.2683;0.2953;-0.0099;-0.0091;-0.0294;635.0;129.48;11.3;-57.43;278.13;-7.89;-0.63;8.0;1000.71;62.416;44.567577;-123.2747;70.48;NaN;;40.9;6.068;174.2;12 / 21;130019;2018-03-07 17:33:26:476
0.4307;1.206;10.0666;0.1337;1.3357;9.7143;0.2774;-0.4818;0.2318;0.0052;0.0041;-0.039;624.0;129.64;10.92;-58.23;278.08;-7.85;-0.8;8.0;1000.75;62.416;44.567577;-123.2747;70.48;NaN;;40.9;6.068;174.2;12 / 21;130519;2018-03-07 17:33:26:976
0.1699;0.0694;10.5428;0.1425;1.2763;9.7222;0.1781;-0.7596;0.0505;-0.0085;-0.0236;-0.0313;634.0;130.93;10.83;-56.37;277.75;-7.48;-0.84;8.0;1000.79;62.416;44.567577;-123.2747;70.06;NaN;;41.15;6.068;175.7;12 / 21;131020;2018-03-07 17:33:27:477
0.5456;0.7155;10.4303;0.2563;1.2151;9.7277;0.2488;-0.346;0.2795;-0.0044;-0.013;-0.0384;616.0;131.54;10.74;-57.0;277.54;-7.2;-1.43;8.0;1000.8;62.416;44.567577;-123.2747;70.06;NaN;;41.15;6.068;175.7;12 / 21;131520;2018-03-07 17:33:27:977
0.4211;0.2895;10.0092;0.2836;1.1497;9.7349;0.1909;-0.757;0.24;-0.0015;-4.0E-4;-0.0394;627.0;131.19;10.82;-56.9;277.37;-6.73;-1.67;8.0;1000.86;62.416;44.567577;-123.2747;70.11;NaN;;39.67;6.068;177.8;12 / 21;132019;2018-03-07 17:33:28:476
0.6006;-1.7013;9.0186;0.3297;1.0425;9.7455;0.236;-1.1511;0.5348;-0.0316;-0.0134;-0.0459;620.0;131.4;10.72;-57.43;277.23;-6.44;-1.84;8.0;1000.87;62.416;44.567577;-123.2747;70.11;NaN;;39.67;6.068;177.8;12 / 21;132519;2018-03-07 17:33:28:976
0.6221;0.5767;10.191;0.33;0.9801;9.752;0.1639;-0.7153;-0.7313;0.0219;-0.0061;-0.0414;625.0;132.46;10.8;-58.77;276.96;-5.65;-1.84;8.0;1000.9;62.416;44.567577;-123.2747;69.73;NaN;;37.98;6.068;179.3;12 / 21;133020;2018-03-07 17:33:29:477
1.4931;-0.335;12.9428;0.345;1.0589;9.7432;1.3523;-0.8562;1.8164;0.2251;0.0774;-0.0569;639.0;132.55;10.41;-59.13;276.68;-6.2;-2.03;8.0;1000.95;62.416;44.567577;-123.2747;69.73;NaN;;37.98;6.068;179.3;12 / 21;133521;2018-03-07 17:33:29:978
0.347;0.6437;8.1643;0.2091;0.8041;9.7714;-0.0618;-0.3933;-0.8939;-0.1555;-0.0153;-0.0437;633.0;134.07;10.44;-58.68;276.15;-4.7;-1.23;8.0;1000.9;62.416;44.567577;-123.2747;69.44;NaN;;34.09;6.068;182.9;12 / 21;134020;2018-03-07 17:33:30:477
0.6221;2.7565;7.7288;0.3842;1.2114;9.724;0.2416;1.2058;-1.6311;0.2334;-0.0356;-0.0677;633.0;132.98;11.09;-59.54;277.34;-5.69;-2.07;8.0;1000.97;62.416;44.567577;-123.2747;69.44;NaN;;34.09;6.068;182.9;12 / 21;134519;2018-03-07 17:33:30:976
0.6939;1.4405;9.7986;0.4461;1.0578;9.7392;0.1903;0.4619;-0.0809;-0.0023;-0.033;-0.052;638.0;133.07;10.78;-59.11;276.68;-6.31;-2.26;8.0;1000.99;62.416;44.567577;-123.2747;69.22;NaN;;32.51;6.068;185.6;12 / 21;135019;2018-03-07 17:33:31:476
0.0263;1.6439;9.0832;0.409;1.2076;9.7234;-0.5284;0.7027;-0.4764;0.0064;0.0149;-0.0123;636.0;133.95;10.61;-58.78;277.18;-6.81;-2.61;8.0;1001.02;62.416;44.567577;-123.2747;69.22;NaN;;32.51;6.068;185.6;12 / 21;135519;2018-03-07 17:33:31:976
-0.0502;2.1152;9.8297;0.2607;1.3136;9.7148;-0.5602;0.5141;-0.4074;-0.0166;0.0232;0.0172;634.0;133.71;10.56;-59.05;277.62;-7.56;-1.69;8.0;1001.02;62.416;44.567577;-123.2747;68.76;NaN;;33.05;6.068;188.7;12 / 21;136020;2018-03-07 17:33:32:477
-0.2656;1.2682;10.4782;0.129;1.4094;9.704;-0.5687;0.4227;-0.0737;-0.0046;-0.002;0.0282;634.0;134.24;10.42;-58.94;277.63;-8.24;-0.83;8.0;1001.05;62.416;44.567577;-123.2747;68.76;NaN;;33.05;6.068;188.7;12 / 21;136519;2018-03-07 17:33:32:976
-0.39;1.9836;9.7436;0.0904;1.4671;9.6959;-0.4504;0.5787;-0.3934;-0.0095;0.0059;0.03;631.0;134.02;10.76;-59.06;278.25;-8.6;-0.53;8.0;1001.05;62.416;44.567577;-123.2747;68.27;NaN;;34.78;6.068;188.7;12 / 21;137019;2018-03-07 17:33:33:476
-0.6915;1.5123;9.2746;-0.0259;1.4981;9.6915;-0.8105;0.6271;-0.0732;-0.0064;-0.0144;0.0345;631.0;133.41;11.01;-58.94;278.54;-8.79;0.15;8.0;1001.07;62.416;44.567577;-123.2747;68.27;NaN;;34.78;6.068;188.7;12 / 21;137520;2018-03-07 17:33:33:977
-0.8853;1.3926;9.4947;-0.1895;1.5665;9.6789;-0.7448;0.4801;-0.3446;0.0076;0.0405;0.0475;629.0;133.13;10.21;-59.9;278.57;-9.19;1.12;8.0;1001.1;62.416;44.567577;-123.2747;68.31;NaN;;37.08;6.068;186.7;12 / 21;138019;2018-03-07 17:33:34:476
-0.9882;1.5529;10.0738;-0.2688;1.5424;9.6809;-0.5759;-0.1578;0.4609;-0.0085;0.0045;0.0679;629.0;133.38;10.54;-59.12;279.02;-9.17;1.57;8.0;1001.11;62.416;44.567577;-123.2747;68.31;NaN;;37.08;6.068;186.7;12 / 21;138519;2018-03-07 17:33:34:976
-0.8351;1.4716;9.1884;-0.4874;1.6458;9.6553;-0.3837;0.0611;-0.5192;-0.0404;0.019;0.0518;622.0;132.58;10.78;-58.58;279.55;-9.66;2.89;8.0;1001.13;62.416;44.567577;-123.2747;67.97;NaN;;39.17;6.068;183.9;12 / 21;139019;2018-03-07 17:33:35:476
-0.536;2.5866;8.3486;-0.4714;1.5341;9.6744;-0.4941;-0.1818;-0.0324;0.0651;0.0169;0.0657;625.0;132.54;11.45;-59.17;279.04;-8.58;2.86;8.0;1001.15;62.416;44.567577;-123.2747;67.97;NaN;;39.17;6.068;183.9;12 / 21;139519;2018-03-07 17:33:35:976
-1.2012;1.2395;9.4756;-0.5781;1.505;9.6732;-0.7988;-0.0895;0.1523;-0.0015;0.0018;0.0679;623.0;132.01;12.2;-58.98;279.77;-8.81;3.41;8.0;1001.14;62.416;44.567577;-123.2747;67.57;NaN;;40.03;6.068;180.4;12 / 21;140020;2018-03-07 17:33:36:477
-0.9787;1.919;10.081;-0.4587;1.5531;9.672;-0.4543;0.0959;0.1023;0.0313;-0.0291;0.0707;626.0;130.21;11.31;-58.5;279.71;-8.93;2.91;8.0;1001.18;62.416;44.567577;-123.2747;67.57;NaN;;40.03;6.068;180.4;12 / 21;140520;2018-03-07 17:33:36:977
-0.8829;1.8018;10.0427;-0.4936;1.5113;9.6769;-0.4417;-0.1597;-0.2341;0.0274;0.0112;0.0665;627.0;129.84;12.5;-58.81;280.26;-8.87;2.92;8.0;1001.21;62.416;44.567577;-123.2747;67.36;NaN;;40.82;6.068;176.5;12 / 21;141019;2018-03-07 17:33:37:476
-0.5456;1.1031;10.2509;-0.5841;1.4078;9.6875;0.157;-0.474;0.3524;-0.0412;0.0124;0.0655;624.0;130.13;11.38;-58.05;279.25;-8.49;3.42;8.0;1001.23;62.416;44.567577;-123.2747;67.36;NaN;;40.82;6.068;176.5;12 / 21;141520;2018-03-07 17:33:37:977
-0.9811;1.3926;9.9518;-0.6298;1.5151;9.6684;0.2307;-0.1869;0.0113;0.0156;-0.0289;0.05;620.0;131.0;11.85;-56.34;279.71;-8.62;3.86;8.0;1001.22;62.416;44.567577;-123.2747;66.7;NaN;;41.0;6.068;172.7;12 / 21;142020;2018-03-07 17:33:38:477
-0.9763;1.0768;10.1599;-0.6926;1.4482;9.6744;-0.4186;-0.4348;0.4;-0.0197;-0.0059;0.0506;618.0;130.04;11.67;-56.92;279.99;-9.01;3.93;8.0;1001.26;62.416;44.567577;-123.2747;66.7;NaN;;41.0;6.068;172.7;12 / 21;142520;2018-03-07 17:33:38:977
-0.7753;1.3448;10.1862;-0.6495;1.4795;9.6726;-0.0489;-0.0259;0.0695;-0.015;0.0049;0.0553;619.0;128.44;12.08;-58.85;280.1;-8.68;3.84;8.0;1001.29;62.416;44.567577;-123.2747;66.45;NaN;;41.15;6.068;169.4;12 / 21;143020;2018-03-07 17:33:39:477
-0.5504;1.5075;9.3105;-0.6233;1.534;9.6659;0.1588;-0.0071;0.2139;0.0085;0.0043;0.049;619.0;128.29;12.32;-58.28;280.2;-8.93;3.73;8.0;1001.33;62.416;44.567577;-123.2747;66.45;NaN;;41.15;6.068;169.4;12 / 21;143521;2018-03-07 17:33:39:978
-0.335;1.3831;9.8417;-0.5711;1.533;9.6692;0.2921;-0.0387;0.2476;9.0E-4;-0.0085;0.0268;618.0;127.32;12.78;-58.24;280.59;-8.99;3.38;8.0;1001.32;62.416;44.567577;-123.2747;66.18;NaN;;41.08;6.068;166.6;12 / 21;144020;2018-03-07 17:33:40:477
-0.3565;1.6223;9.6191;-0.5224;1.5504;9.6692;0.1369;0.0074;0.0664;0.0207;-0.0041;0.0235;616.0;127.81;12.54;-58.47;280.46;-8.97;3.21;8.0;1001.35;62.416;44.567577;-123.2747;66.18;NaN;;41.08;6.068;166.6;12 / 21;144521;2018-03-07 17:33:40:978
-0.012;1.0768;10.1527;-0.5251;1.5739;9.6653;0.1403;-0.0286;-0.0468;-0.008;0.0287;0.015;615.0;127.49;12.25;-58.4;280.2;-9.24;3.11;8.0;1001.37;62.416;44.567577;-123.2747;65.43;NaN;;41.62;6.068;164.7;12 / 21;145020;2018-03-07 17:33:41:477
-0.7633;1.6319;9.7173;-0.603;1.6033;9.6559;-0.0958;-0.0646;0.0237;0.008;-0.001;0.0347;612.0;127.83;12.63;-57.6;280.69;-9.32;3.47;8.0;1001.39;62.416;44.567577;-123.2747;65.43;NaN;;41.62;6.068;164.7;12 / 21;145520;2018-03-07 17:33:41:977
-0.5097;1.5338;9.6359;-0.6261;1.5942;9.6559;-0.0756;-0.0631;0.4147;0.0046;0.0104;0.0396;608.0;127.88;12.85;-57.98;280.77;-9.36;3.71;8.0;1001.41;62.416;44.567577;-123.2747;65.45;NaN;;42.01;6.068;163.4;12 / 21;146019;2018-03-07 17:33:42:476
-1.0744;1.8521;9.856;-0.6696;1.6347;9.6462;-0.1572;-0.1525;-0.2046;0.0135;0.0078;0.0453;607.0;127.64;12.85;-58.22;280.91;-9.52;3.94;8.0;1001.43;62.416;44.567577;-123.2747;65.45;NaN;;42.01;6.068;163.4;12 / 21;146519;2018-03-07 17:33:42:976
-1.0887;1.3113;10.4231;-0.6443;1.5752;9.6579;-0.1028;-0.2721;-0.1569;-0.0105;-0.0051;0.0481;608.0;128.27;13.18;-58.85;280.84;-9.39;3.9;8.0;1001.44;62.416;44.567577;-123.2747;65.42;NaN;;42.3;6.068;161.2;12 / 21;147020;2018-03-07 17:33:43:477
-0.5623;1.608;10.1575;-0.65;1.5255;9.6654;0.1792;-0.4101;-0.0368;0.006;0.0271;0.0433;608.0;127.24;13.91;-58.22;281.13;-8.95;3.85;8.0;1001.46;62.416;44.567577;-123.2747;65.42;NaN;;42.3;6.068;161.2;12 / 21;147520;2018-03-07 17:33:43:977
-0.6293;1.4165;9.6431;-0.6241;1.5323;9.6661;0.0638;-0.0658;-0.1606;-7.0E-4;-0.0067;0.0498;607.0;125.63;12.73;-57.64;280.75;-8.99;3.69;8.0;1001.48;62.416;44.567577;-123.2747;64.95;NaN;;41.83;6.068;158.7;12 / 21;148020;2018-03-07 17:33:44:477
-0.3685;1.3687;9.7364;-0.6232;1.5336;9.6659;0.1373;-0.0908;0.2575;-0.0091;-0.0024;0.0345;605.0;126.12;14.02;-57.55;281.24;-9.06;3.76;8.0;1001.47;62.416;44.567577;-123.2747;64.95;NaN;;41.83;6.068;158.7;12 / 21;148519;2018-03-07 17:33:44:976
-0.2177;1.3902;10.3944;-0.5205;1.4467;9.6854;0.3253;-0.2087;0.0676;-0.0097;0.0067;0.0274;607.0;125.46;14.13;-56.31;280.73;-8.48;3.08;8.0;1001.51;62.416;44.567577;-123.2747;64.49;NaN;;41.51;6.068;155.9;12 / 21;149019;2018-03-07 17:33:45:476
-0.4834;0.6724;10.1073;-0.4904;1.3951;9.6945;0.0327;-0.6135;0.3307;-0.0101;0.012;0.0235;606.0;125.77;15.37;-57.18;281.04;-8.33;2.88;8.0;1001.5;62.416;44.567577;-123.2747;64.49;NaN;;41.51;6.068;155.9;12 / 21;149521;2018-03-07 17:33:45:978
-0.5121;0.6126;9.8632;-0.5127;1.3026;9.7062;-0.0356;-0.7242;0.0231;-0.0038;0.0035;0.039;605.0;124.34;14.56;-56.68;280.96;-7.75;3.0;8.0;1001.55;62.416;44.567577;-123.2747;64.27;NaN;;41.18;6.068;154.1;12 / 21;150021;2018-03-07 17:33:46:478
-0.2847;0.4475;9.9589;-0.5129;1.1915;9.7205;0.0121;-0.8064;0.2027;0.0068;0.0104;0.0347;604.0;124.54;15.21;-57.12;280.51;-6.98;3.02;8.0;1001.58;62.416;44.567577;-123.2747;64.27;NaN;;41.18;6.068;154.1;12 / 21;150521;2018-03-07 17:33:46:978
-0.6245;0.0694;10.1982;-0.5162;0.9136;9.7503;0.032;-0.7154;0.1798;-0.0025;0.0104;0.0325;600.0;124.77;15.39;-56.89;279.71;-5.35;3.03;8.0;1001.6;62.416;44.567577;-123.2747;64.38;NaN;;39.31;6.068;152.2;12 / 21;151020;2018-03-07 17:33:47:477
-0.591;-0.0287;10.2173;-0.5013;0.7741;9.7632;0.1301;-0.6467;0.2088;-0.0074;-0.0024;0.0347;600.0;124.87;15.96;-57.22;279.83;-4.67;3.0;8.0;1001.64;62.416;44.567577;-123.2747;64.38;NaN;;39.31;6.068;152.2;12 / 21;151520;2018-03-07 17:33:47:977
-0.1149;0.1388;10.392;-0.4637;0.7112;9.7698;0.2308;-0.5296;-0.0864;-0.0019;0.0;0.0316;603.0;124.36;16.14;-56.4;279.63;-4.27;2.76;8.0;1001.65;62.416;44.567577;-123.2747;64.5;NaN;;34.78;6.068;149.6;12 / 21;152019;2018-03-07 17:33:48:476
-1.194;0.1316;13.5577;-0.4116;0.6932;9.7735;-0.0379;-0.4785;3.1409;1.0E-4;0.0029;0.0314;603.0;123.97;15.94;-56.26;279.47;-4.02;2.47;8.0;1001.69;62.416;44.567577;-123.2747;64.5;NaN;;34.78;6.068;149.6;12 / 21;152520;2018-03-07 17:33:48:977
0.4834;1.1366;9.2507;-0.3398;0.9141;9.758;-0.226;0.5879;-0.3353;-0.1736;-0.0024;0.0341;595.0;124.08;15.06;-55.87;279.56;-5.35;1.99;8.0;1001.67;62.416;44.567577;-123.2747;64.68;NaN;;30.64;6.068;148.3;12 / 21;153021;2018-03-07 17:33:49:478
-0.2656;0.7083;13.1366;-0.3684;0.4887;9.7875;0.6467;0.3648;0.6477;-0.0622;0.0507;0.0282;609.0;123.63;16.33;-56.8;279.19;-3.48;2.1;8.0;1001.68;62.416;44.567577;-123.2747;64.68;NaN;;30.64;6.068;148.3;12 / 21;153520;2018-03-07 17:33:49:977
-0.012;1.4381;10.1192;-0.3317;0.9771;9.7522;0.3321;0.4407;0.273;0.0162;-0.0118;0.0221;600.0;123.08;16.84;-57.29;280.88;-5.93;2.01;8.0;1001.68;62.416;44.567577;-123.2747;64.87;NaN;;28.4;6.068;147.0;12 / 21;154020;2018-03-07 17:33:50:477
-0.0526;1.3687;9.4516;-0.2926;0.9984;9.7513;0.2372;0.3543;-0.4698;0.0229;-0.0033;0.0201;602.0;123.23;16.0;-55.96;280.2;-5.64;1.8;8.0;1001.7;62.416;44.567577;-123.2747;64.87;NaN;;28.4;6.068;147.0;12 / 21;154519;2018-03-07 17:33:50:976
-0.6317;1.2275;9.9757;-0.3059;1.1223;9.7374;-0.0216;0.9334;-0.3222;0.0036;0.0043;0.0386;600.0;122.43;16.18;-56.98;280.4;-6.02;1.68;8.0;1001.72;62.416;44.567577;-123.2747;64.67;NaN;;27.65;6.068;145.5;12 / 21;155020;2018-03-07 17:33:51:477
-0.1507;2.467;8.9396;-0.3659;1.2777;9.7162;0.0717;0.8715;-0.2478;0.0085;0.0173;0.0353;598.0;122.67;16.88;-56.7;281.5;-7.21;2.11;8.0;1001.72;62.416;44.567577;-123.2747;64.67;NaN;;27.65;6.068;145.5;12 / 21;155519;2018-03-07 17:33:51:976
-0.1268;2.6034;9.3583;-0.3654;1.4513;9.6918;0.0806;0.9751;-0.0161;-0.0042;-8.0E-4;0.0253;596.0;122.26;17.74;-56.16;282.59;-8.51;2.16;8.0;1001.71;62.416;44.567577;-123.2747;64.45;NaN;;27.86;6.068;144.0;12 / 21;156020;2018-03-07 17:33:52:477
-0.1412;2.3378;9.4971;-0.3871;1.5838;9.6702;-4.0E-4;0.729;-0.2893;0.005;0.0147;0.0284;596.0;123.66;17.03;-55.51;282.24;-9.1;2.26;8.0;1001.7;62.416;44.567577;-123.2747;64.45;NaN;;27.86;6.068;144.0;12 / 21;156519;2018-03-07 17:33:52:976
-0.2465;2.3665;9.4995;-0.4078;1.7373;9.6429;-0.0516;0.6029;-0.1983;0.0125;0.0076;0.0355;594.0;123.28;17.5;-55.87;283.23;-10.0;2.41;8.0;1001.72;62.416;44.567577;-123.2747;64.5;NaN;;30.85;6.068;142.1;12 / 21;157021;2018-03-07 17:33:53:478
-0.1555;2.2038;9.679;-0.4114;1.8437;9.623;0.1481;0.4368;-0.4518;0.0025;0.0159;0.031;591.0;123.0;17.5;-55.13;283.03;-10.75;2.41;8.0;1001.71;62.416;44.567577;-123.2747;64.5;NaN;;30.85;6.068;142.1;12 / 21;157520;2018-03-07 17:33:53:977
-0.2345;1.8521;9.4469;-0.4341;1.9043;9.6102;-0.3503;-0.0681;0.3825;0.0015;-0.0106;0.0367;589.0;122.34;17.5;-55.09;283.38;-10.89;2.71;8.0;1001.71;62.416;44.567577;-123.2747;64.37;NaN;;33.77;6.068;140.2;12 / 21;158019;2018-03-07 17:33:54:476
-0.6508;1.9884;10.0283;-0.3691;1.9244;9.6089;-0.0827;-0.1138;0.2461;0.008;-0.003;0.0355;589.0;122.29;17.83;-55.67;283.87;-11.3;2.27;8.0;1001.71;62.416;44.567577;-123.2747;64.37;NaN;;33.77;6.068;140.2;12 / 21;158520;2018-03-07 17:33:54:977
-0.335;1.9525;9.2387;-0.3515;1.886;9.6172;-0.0897;-0.0041;-0.1455;-0.0011;0.0157;0.0302;588.0;121.84;18.17;-54.55;283.64;-11.09;2.09;8.0;1001.71;62.416;44.567577;-123.2747;64.39;NaN;;35.46;6.068;138.5;12 / 21;159019;2018-03-07 17:33:55:476
-0.3972;1.8401;9.5115;-0.3404;1.8768;9.6194;0.0106;0.0537;-0.077;0.0056;0.0079;0.0335;587.0;124.82;18.45;-54.32;284.16;-11.01;2.04;8.0;1001.71;62.416;44.567577;-123.2747;64.39;NaN;;35.46;6.068;138.5;12 / 21;159520;2018-03-07 17:33:55:977
-0.2847;1.9813;9.923;-0.3655;1.9169;9.6105;-0.087;-0.0404;0.3052;-1.0E-4;0.0155;0.0388;587.0;122.89;18.1;-54.85;283.63;-11.28;2.13;8.0;1001.71;62.416;44.567577;-123.2747;64.49;NaN;;36.0;6.068;136.0;12 / 21;160020;2018-03-07 17:33:56:477
-0.603;1.9597;10.2963;-0.3871;1.9561;9.6018;-0.0889;0.0242;0.0067;-9.0E-4;0.0139;0.0429;584.0;121.96;18.16;-55.44;283.82;-11.38;2.28;8.0;1001.7;62.416;44.567577;-123.2747;64.49;NaN;;36.0;6.068;136.0;12 / 21;160520;2018-03-07 17:33:56:977
-0.4953;1.3065;9.0425;-0.4077;1.9554;9.6011;-0.0184;-0.3636;0.3323;-0.0048;0.0106;0.0465;583.0;121.73;18.9;-54.44;284.27;-11.5;2.43;8.0;1001.7;62.416;44.567577;-123.2747;64.7;NaN;;36.68;6.068;134.6;12 / 21;161019;2018-03-07 17:33:57:476
-0.6054;0.7178;10.3705;-0.4262;1.8531;9.6205;0.0162;-0.454;0.323;-0.0054;0.0102;0.0423;584.0;120.74;19.42;-55.42;284.32;-11.11;2.48;8.0;1001.7;62.416;44.567577;-123.2747;64.7;NaN;;36.68;6.068;134.6;12 / 21;161519;2018-03-07 17:33:57:976
-0.347;0.9667;9.8321;-0.4281;1.8005;9.6304;0.1594;-0.6729;0.1065;0.007;0.0094;0.0316;582.0;120.44;19.16;-56.88;284.43;-10.65;2.57;8.0;1001.7;62.416;44.567577;-123.2747;64.23;NaN;;37.15;6.068;132.5;12 / 21;162019;2018-03-07 17:33:58:476
-0.3924;0.3948;10.2556;-0.3824;1.7023;9.6502;0.0759;-1.1408;0.1605;-5.0E-4;-0.0077;0.0227;582.0;121.28;19.31;-55.85;283.97;-10.21;2.37;8.0;1001.7;62.416;44.567577;-123.2747;64.23;NaN;;37.15;6.068;132.5;12 / 21;162519;2018-03-07 17:33:58:976
-0.1723;0.8375;9.734;-0.3074;1.4606;9.6924;0.1906;-0.6791;-0.0098;0.0205;0.0025;0.0186;582.0;120.67;19.8;-55.51;283.54;-8.56;1.85;8.0;1001.71;62.416;44.567577;-123.2747;64.28;NaN;;36.94;6.068;130.1;12 / 21;163019;2018-03-07 17:33:59:476
0.1795;1.8855;5.9749;-0.2974;1.8776;9.6206;0.1918;-0.1097;-3.4284;0.0378;0.0023;0.0194;575.0;119.95;19.73;-56.82;284.16;-9.63;1.67;8.0;1001.72;62.416;44.567577;-123.2747;64.28;NaN;;36.94;6.068;130.1;12 / 21;163519;2018-03-07 17:33:59:976
-0.0933;1.9119;9.2865;-0.3022;1.1683;9.7321;0.0866;0.5388;-2.7033;-0.2025;-0.0041;0.0249;583.0;121.44;18.55;-53.28;282.12;-6.84;1.78;8.0;1001.71;62.416;44.567577;-123.2747;64.49;NaN;;38.02;6.068;129.5;12 / 21;164019;2018-03-07 17:34:00:476
-0.0814;3.0102;9.2004;-0.2428;1.6036;9.6716;0.1671;1.3628;-1.5153;0.0797;0.0037;0.0162;590.0;122.09;20.15;-52.52;282.48;-6.99;1.51;8.0;1001.69;62.416;44.567577;-123.2747;64.49;NaN;;38.02;6.068;129.5;12 / 21;164522;2018-03-07 17:34:00:979
-0.1603;2.0554;9.8297;-0.2693;1.5067;9.6865;-0.0146;0.5749;-0.2528;0.016;8.0E-4;0.0182;583.0;119.96;19.96;-55.21;283.54;-8.61;1.59;8.0;1001.68;62.416;44.567577;-123.2747;64.66;NaN;;35.1;6.068;128.5;12 / 21;165019;2018-03-07 17:34:01:476
-0.3948;2.2277;9.6;-0.2897;1.6177;9.668;-0.0036;0.8238;-0.449;-0.003;0.0043;0.0247;580.0;119.49;19.88;-55.19;284.06;-9.49;1.72;8.0;1001.69;62.416;44.567577;-123.2747;64.66;NaN;;35.1;6.068;128.5;12 / 21;165519;2018-03-07 17:34:01:976
-0.3685;2.5723;9.3583;-0.333;1.6891;9.6543;-0.2151;0.8467;-0.3753;-0.0032;0.0012;0.0404;582.0;120.01;20.59;-55.18;284.59;-9.79;1.96;8.0;1001.69;62.416;44.567577;-123.2747;63.87;NaN;;32.15;6.068;126.6;12 / 21;166019;2018-03-07 17:34:02:476
-0.8375;2.5077;9.3464;-0.3602;1.7316;9.6458;-0.1518;0.5315;0.0957;-3.0E-4;0.0175;0.0408;584.0;120.21;21.53;-56.2;285.28;-10.09;2.06;8.0;1001.66;62.416;44.567577;-123.2747;63.87;NaN;;32.15;6.068;126.6;12 / 21;166519;2018-03-07 17:34:02:976
-0.6174;2.1583;9.5378;-0.3707;1.7774;9.6371;-0.0946;0.2545;-0.2031;-0.0032;6.0E-4;0.0453;584.0;120.23;22.4;-55.62;285.48;-10.41;2.23;8.0;1001.67;62.416;44.567577;-123.2747;63.72;NaN;;34.02;6.068;124.3;12 / 21;167019;2018-03-07 17:34:03:476
-0.28;1.8855;9.679;-0.3667;1.7387;9.6443;0.0719;0.0862;-0.0033;-0.0044;0.0049;0.0345;585.0;120.05;22.99;-54.59;285.77;-10.29;2.2;8.0;1001.68;62.416;44.567577;-123.2747;63.72;NaN;;34.02;6.068;124.3;12 / 21;167521;2018-03-07 17:34:03:978
-0.2967;2.2564;9.3727;-0.3029;1.7337;9.6474;0.1077;0.2062;-0.1667;-0.0184;-0.0045;0.0141;587.0;118.85;23.32;-55.08;285.73;-10.18;1.8;8.0;1001.7;62.416;44.567577;-123.2747;63.35;NaN;;36.76;6.068;122.2;12 / 21;168019;2018-03-07 17:34:04:476
-0.0263;1.8736;9.1597;-0.252;1.6505;9.6635;0.0774;0.1862;-0.2486;-0.0127;-0.0036;0.0125;591.0;118.63;23.62;-55.22;285.96;-9.85;1.52;8.0;1001.72;62.416;44.567577;-123.2747;63.35;NaN;;36.76;6.068;122.2;12 / 21;168520;2018-03-07 17:34:04:977
-0.2321;1.8401;10.0522;-0.2043;1.6828;9.659;0.1833;0.0993;0.4574;0.0091;0.0057;0.0076;592.0;118.67;24.31;-55.8;285.95;-9.86;1.22;8.0;1001.71;62.416;44.567577;-123.2747;62.23;NaN;;38.48;6.068;120.9;12 / 21;169021;2018-03-07 17:34:05:478
0.2752;1.9956;9.5234;-0.1729;1.7198;9.6531;0.1927;0.1879;0.3087;-0.0011;0.002;0.0082;591.0;119.05;22.88;-55.24;285.51;-10.15;1.1;8.0;1001.73;62.416;44.567577;-123.2747;62.23;NaN;;38.48;6.068;120.9;12 / 21;169521;2018-03-07 17:34:05:978
0.0646;1.0289;9.8297;-0.1506;1.6456;9.6664;0.0498;-0.1952;0.1983;-0.0017;0.0014;0.0068;590.0;119.52;24.65;-55.34;286.04;-9.72;0.91;8.0;1001.76;62.416;44.567577;-123.2747;61.67;NaN;;40.43;6.068;120.2;12 / 21;170020;2018-03-07 17:34:06:477
-0.0263;0.5599;9.7412;-0.1076;1.4648;9.696;0.2025;-0.989;0.312;0.0027;0.0039;-0.006;591.0;118.64;23.7;-55.74;285.56;-9.21;0.82;8.0;1001.8;62.416;44.567577;-123.2747;61.67;NaN;;40.43;6.068;120.2;12 / 21;170520;2018-03-07 17:34:06:977
0.0479;0.7202;9.9374;-0.098;1.2342;9.7282;0.1131;-0.4388;0.179;0.0131;0.0073;-0.0068;589.0;119.09;23.9;-55.72;284.67;-7.23;0.58;8.0;1001.84;62.416;44.567577;-123.2747;61.11;NaN;;41.44;6.068;120.0;12 / 21;171021;2018-03-07 17:34:07:478
-0.0215;0.414;10.1288;-0.0984;0.9903;9.756;-0.008;-0.5565;0.2584;0.005;0.0067;-0.0064;584.0;120.2;24.1;-56.11;284.49;-7.05;0.63;8.0;1001.88;62.416;44.567577;-123.2747;61.11;NaN;;41.44;6.068;120.0;12 / 21;171520;2018-03-07 17:34:07:977
0.0838;0.7202;9.7938;-0.063;0.882;9.7667;-0.0623;-0.1393;0.1597;0.0176;0.0053;-0.0058;578.0;120.72;23.89;-56.41;283.48;-5.07;0.33;8.0;1001.91;62.416;44.567577;-123.2747;60.34;NaN;;39.56;6.068;120.1;12 / 21;172020;2018-03-07 17:34:08:477
0.1771;2.4885;5.8887;0.0252;1.3878;9.7079;0.1105;0.9588;-3.4567;-0.1593;-0.0267;-0.0082;557.0;119.37;21.44;-55.23;283.67;-7.41;0.05;8.0;1001.88;62.416;44.567577;-123.2747;60.34;NaN;;39.56;6.068;120.1;12 / 21;172519;2018-03-07 17:34:08:976
0.4403;0.3183;12.9308;0.046;0.67;9.7836;0.0302;-0.061;3.6388;0.0178;-0.0014;-0.0164;571.0;119.98;24.21;-56.41;282.74;-3.34;-0.26;8.0;1001.92;62.416;44.567577;-123.2747;59.66;NaN;;36.65;6.068;122.5;12 / 21;173019;2018-03-07 17:34:09:476
0.3159;1.0265;9.4373;0.0208;1.131;9.7412;-0.1393;0.1735;-0.1841;-0.1259;-0.0079;0.0133;564.0;120.25;22.23;-56.61;283.74;-7.79;-0.09;8.0;1001.91;62.416;44.567577;-123.2747;59.66;NaN;;36.65;6.068;122.5;12 / 21;173520;2018-03-07 17:34:09:977
-0.0814;1.9621;9.5019;-0.0044;1.2566;9.7258;-0.1502;0.7283;-0.1431;0.0058;-0.0094;0.0087;571.0;120.75;22.56;-56.15;283.92;-7.36;0.03;8.0;1001.91;62.416;44.567577;-123.2747;59.14;NaN;;36.22;6.068;122.0;12 / 21;174020;2018-03-07 17:34:10:477
0.0814;2.3641;9.734;0.0558;1.3198;9.7173;0.027;0.6654;0.2202;-0.0032;8.0E-4;-0.0087;578.0;120.84;22.98;-57.2;284.04;-7.73;-0.36;8.0;1001.92;62.416;44.567577;-123.2747;59.14;NaN;;36.22;6.068;122.0;12 / 21;174520;2018-03-07 17:34:10:977
0.2513;2.266;9.6096;0.0567;1.5058;9.6902;0.0635;0.8885;-0.3846;-0.0044;-0.0087;-0.0056;575.0;119.67;22.69;-55.91;284.51;-8.72;-0.3;8.0;1001.94;62.416;44.567577;-123.2747;58.81;NaN;;35.46;6.068;119.7;12 / 21;175021;2018-03-07 17:34:11:478
-0.0814;2.3091;9.8297;0.0205;1.547;9.6838;-0.0312;0.6586;-0.287;-0.0166;0.0306;0.008;566.0;119.24;23.0;-55.44;284.69;-9.03;-0.24;8.0;1001.94;62.416;44.567577;-123.2747;58.81;NaN;;35.46;6.068;119.7;12 / 21;175519;2018-03-07 17:34:11:976
-0.1699;1.9262;9.868;-0.0649;1.6048;9.6742;0.014;0.6205;-0.0615;-0.0192;0.0253;0.0038;529.0;119.57;22.73;-55.23;284.9;-9.42;0.38;8.0;1001.92;62.416;44.567577;-123.2747;58.27;NaN;;36.58;6.068;118.1;12 / 21;176020;2018-03-07 17:34:12:477
-0.3757;1.8138;11.2032;-0.0863;1.6784;9.6616;0.0655;0.1939;0.1994;-0.0121;-0.0311;-5.0E-4;515.0;120.01;23.09;-56.09;285.22;-9.86;0.65;8.0;1001.95;62.416;44.567577;-123.2747;58.27;NaN;;36.58;6.068;118.1;12 / 21;176519;2018-03-07 17:34:12:976
0.1172;1.9334;9.4229;-0.0267;1.7818;9.6434;0.0056;0.1604;-0.5123;-0.0019;-0.0077;-0.0046;535.0;120.14;22.56;-56.13;285.3;-10.31;0.28;8.0;1001.94;62.416;44.567577;-123.2747;58.23;NaN;;37.69;6.068;118.4;12 / 21;177020;2018-03-07 17:34:13:477
-0.1747;2.0076;9.2794;-0.012;1.8038;9.6393;-0.0716;0.0971;-0.1049;-0.0017;0.0063;-3.0E-4;556.0;120.12;22.64;-54.68;285.2;-10.44;0.03;8.0;1001.93;62.416;44.567577;-123.2747;58.23;NaN;;37.69;6.068;118.4;12 / 21;177520;2018-03-07 17:34:13:977
0.1436;2.0339;9.6909;-0.0497;1.7918;9.6414;0.0782;-0.0493;-0.1181;-0.0199;-0.0014;0.0113;569.0;119.4;22.87;-55.45;285.48;-10.63;0.31;8.0;1001.94;62.416;44.567577;-123.2747;57.78;NaN;;41.18;6.068;120.4;12 / 21;178020;2018-03-07 17:34:14:477
-0.1675;2.0674;9.3033;-0.0786;1.8313;9.6338;-0.1685;0.1874;-0.6247;-0.0017;-0.0124;0.0129;569.0;119.58;22.77;-55.85;285.49;-10.62;0.49;8.0;1001.95;62.416;44.567577;-123.2747;57.78;NaN;;41.18;6.068;120.4;12 / 21;178519;2018-03-07 17:34:14:976
-0.1053;1.8401;9.8656;-0.0426;1.8284;9.6346;0.0041;0.1624;0.0284;-0.0062;0.0049;0.0099;568.0;118.89;22.55;-54.79;285.51;-10.75;0.25;8.0;1001.93;62.416;44.567577;-123.2747;57.16;NaN;;43.67;6.068;122.3;12 / 21;179019;2018-03-07 17:34:15:476
-0.1771;1.9143;10.0666;-0.0513;1.8339;9.6335;-0.0079;0.0698;0.2313;-0.0032;-0.0041;0.0117;574.0;119.3;22.99;-55.22;285.53;-10.75;0.33;8.0;1001.94;62.416;44.567577;-123.2747;57.16;NaN;;43.67;6.068;122.3;12 / 21;179520;2018-03-07 17:34:15:977
-0.0263;1.7133;9.8369;-0.0588;1.8109;9.6378;0.0171;-0.1789;0.0569;0.0021;0.002;0.0025;581.0;119.41;23.27;-54.44;285.43;-10.69;0.33;8.0;1001.97;62.416;44.567577;-123.2747;57.65;NaN;;44.78;6.068;121.0;12 / 21;180019;2018-03-07 17:34:16:476
0.0502;1.876;9.7651;-0.0576;1.7847;9.6427;0.0936;-0.2119;-0.0108;0.0013;-4.0E-4;-0.0023;580.0;118.79;23.15;-54.57;285.42;-10.47;0.33;8.0;1001.94;62.416;44.567577;-123.2747;57.65;NaN;;44.78;6.068;121.0;12 / 21;180520;2018-03-07 17:34:16:977
-0.0526;1.3472;9.7867;-0.0436;1.7635;9.6467;0.1416;-0.2151;0.1958;-0.0099;4.0E-4;-0.0038;576.0;119.45;22.7;-54.91;285.38;-10.42;0.26;8.0;1001.96;62.416;44.567577;-123.2747;57.16;NaN;;45.83;6.068;120.4;12 / 21;181019;2018-03-07 17:34:17:476
0.1149;1.8185;9.6096;-0.0431;1.7439;9.6502;-0.0616;-0.1416;0.0971;-0.0034;-0.0053;-0.0027;565.0;119.43;22.66;-55.03;285.32;-10.27;0.25;8.0;1001.96;62.416;44.567577;-123.2747;57.16;NaN;;45.83;6.068;120.4;12 / 21;181520;2018-03-07 17:34:17:977
-0.1579;1.5386;10.0164;-0.0136;1.7111;9.6562;0.0791;-0.2521;0.0217;-0.0054;-0.0055;-0.0056;570.0;119.18;22.42;-54.77;284.74;-10.05;0.08;8.0;1001.96;62.416;44.567577;-123.2747;57.63;NaN;;45.79;6.068;119.4;12 / 21;182020;2018-03-07 17:34:18:477
0.2536;1.3759;9.9948;0.0025;1.6162;9.6726;0.2104;-0.4466;0.1333;0.0046;-0.001;-0.0085;573.0;119.92;22.37;-55.49;284.46;-9.73;-0.04;8.0;1001.99;62.416;44.567577;-123.2747;57.63;NaN;;45.79;6.068;119.4;12 / 21;182520;2018-03-07 17:34:18:977
-0.1364;1.2562;9.5139;-0.0058;1.5972;9.6757;-0.038;-0.149;0.127;9.0E-4;-0.015;-0.007;578.0;120.0;22.37;-56.03;284.42;-9.41;-0.03;8.0;1001.99;62.416;44.567577;-123.2747;57.22;NaN;;45.9;6.068;120.4;12 / 21;183020;2018-03-07 17:34:19:477
0.0838;1.2754;10.4303;0.0278;1.5334;9.686;0.0795;-0.2363;0.3348;-0.0251;0.002;-0.0066;575.0;119.32;22.15;-55.15;284.42;-9.19;-0.12;8.0;1002.03;62.416;44.567577;-123.2747;57.22;NaN;;45.9;6.068;120.4;12 / 21;183521;2018-03-07 17:34:19:978
0.4834;1.0672;9.789;0.0825;1.4962;9.6915;0.3678;-0.2196;0.1682;0.0172;-0.032;-0.0225;582.0;120.92;21.84;-54.27;283.85;-8.8;-0.28;8.0;1002.04;62.416;44.567577;-123.2747;57.43;NaN;;44.57;6.068;121.5;12 / 21;184020;2018-03-07 17:34:20:477
0.6054;1.1964;9.1837;0.217;1.5126;9.6869;0.582;-0.1225;-0.6771;0.026;-0.0277;-0.0408;582.0;121.48;21.67;-52.16;283.57;-8.73;-0.78;8.0;1002.04;62.416;44.567577;-123.2747;57.43;NaN;;44.57;6.068;121.5;12 / 21;184519;2018-03-07 17:34:20:976
1.0528;1.048;9.655;0.2793;1.4327;9.6974;0.5437;-0.2695;-0.0132;0.0111;-0.0089;-0.0596;583.0;120.5;21.92;-54.58;283.44;-8.4;-1.65;8.0;1002.08;62.416;44.567577;-123.2747;57.19;NaN;;43.67;6.068;122.0;12 / 21;185020;2018-03-07 17:34:21:477
0.6867;1.34;9.7316;0.3721;1.4305;9.6946;0.4983;-0.172;0.0615;0.0023;0.0061;-0.0816;582.0;119.98;21.26;-56.63;283.12;-8.38;-2.09;8.0;1002.06;62.416;44.567577;-123.2747;57.19;NaN;;43.67;6.068;122.0;12 / 21;185519;2018-03-07 17:34:21:976
1.2778;1.1007;10.081;0.5093;1.392;9.694;0.5905;-0.2138;0.3828;-0.0042;-0.0206;-0.0905;580.0;120.71;20.32;-56.28;282.28;-8.18;-2.85;8.0;1002.08;62.416;44.567577;-123.2747;56.33;NaN;;42.95;6.068;125.6;12 / 21;186019;2018-03-07 17:34:22:476
1.072;1.1031;9.8082;0.5901;1.412;9.6865;0.6672;-0.1459;-0.2651;0.0066;-0.011;-0.0932;573.0;121.11;19.73;-55.41;282.62;-8.23;-3.35;8.0;1002.1;62.416;44.567577;-123.2747;56.33;NaN;;42.95;6.068;125.6;12 / 21;186519;2018-03-07 17:34:22:976
1.2299;1.5075;9.4325;0.7061;1.4252;9.6768;0.4518;-0.1369;-0.2513;0.0066;-0.0224;-0.1017;581.0;121.51;18.05;-54.44;280.97;-8.3;-4.09;8.0;1002.11;62.416;44.567577;-123.2747;55.7;NaN;;41.69;6.068;130.5;12 / 21;187019;2018-03-07 17:34:23:476
1.1797;1.0337;10.2748;0.7574;1.4199;9.6737;0.484;-0.155;0.1726;-0.0131;-0.022;-0.1062;576.0;122.26;17.5;-54.41;280.51;-8.41;-4.37;8.0;1002.12;62.416;44.567577;-123.2747;55.7;NaN;;41.69;6.068;130.5;12 / 21;187519;2018-03-07 17:34:23:976
1.0792;1.2969;9.8848;0.7782;1.454;9.667;0.3923;-0.1985;-0.1927;1.0E-4;-0.0157;-0.1156;582.0;122.82;17.18;-54.99;280.47;-8.53;-4.6;8.0;1002.13;62.416;44.567577;-123.2747;55.36;NaN;;40.54;6.068;136.0;12 / 21;188020;2018-03-07 17:34:24:477
0.7513;1.1151;9.7292;0.8511;1.3954;9.6695;0.1418;-0.1991;-0.0877;0.0013;0.0076;-0.1204;583.0;124.1;16.76;-56.56;280.53;-8.62;-4.61;8.0;1002.14;62.416;44.567577;-123.2747;55.36;NaN;;40.54;6.068;136.0;12 / 21;188519;2018-03-07 17:34:24:976
0.7394;1.2921;10.1647;0.7865;1.3562;9.6805;-0.0254;-0.0247;-0.1324;0.0085;0.0045;-0.1088;583.0;124.64;15.52;-57.22;279.74;-7.92;-4.86;8.0;1002.15;62.416;44.567577;-123.2747;55.64;NaN;;39.2;6.068;142.8;12 / 21;189019;2018-03-07 17:34:25:476
0.5719;1.3615;10.1049;0.6802;1.3844;9.6846;-0.0998;-0.0821;-0.049;5.0E-4;0.0012;-0.0976;580.0;125.74;15.34;-58.18;279.49;-8.1;-4.16;8.0;1002.15;62.416;44.567577;-123.2747;55.64;NaN;;39.2;6.068;142.8;12 / 21;189519;2018-03-07 17:34:25:976
-0.146;1.4836;10.2437;0.5274;1.4305;9.6874;-0.6361;-0.1429;0.2572;0.0046;-0.0091;-0.0604;578.0;127.31;14.3;-58.05;279.26;-8.35;-3.28;8.0;1002.16;62.416;44.567577;-123.2747;56.43;NaN;;38.88;6.068;149.1;12 / 21;190019;2018-03-07 17:34:26:476
0.0455;0.9045;9.9948;0.4453;1.4046;9.6953;-0.4081;-0.5093;0.0637;0.0113;-0.0033;-0.0583;576.0;127.37;14.25;-58.45;279.32;-8.3;-2.89;8.0;1002.17;62.416;44.567577;-123.2747;56.43;NaN;;38.88;6.068;149.1;12 / 21;190520;2018-03-07 17:34:26:977
0.0981;0.3302;9.7292;0.3972;1.3581;9.704;-0.5865;-0.8688;0.3195;-0.0027;-0.025;-0.05;575.0;128.22;13.75;-58.29;279.23;-7.96;-2.34;8.0;1002.18;62.416;44.567577;-123.2747;56.39;NaN;;37.8;6.068;153.5;12 / 21;191019;2018-03-07 17:34:27:476
-0.0694;0.7561;9.9302;0.3579;1.2639;9.7183;-0.4929;-0.5705;0.0134;0.0048;-0.0051;-0.0533;568.0;128.81;13.48;-58.39;278.58;-7.47;-2.18;8.0;1002.19;62.416;44.567577;-123.2747;56.39;NaN;;37.8;6.068;153.5;12 / 21;191519;2018-03-07 17:34:27:976
-0.0455;0.5575;9.99;0.2571;1.1737;9.7328;-0.4752;-0.6037;0.0766;0.0152;-0.0077;-0.0504;527.0;128.69;13.5;-58.01;278.55;-7.25;-1.88;8.0;1002.21;62.416;44.567577;-123.2747;57.38;NaN;;35.06;6.068;156.8;12 / 21;192020;2018-03-07 17:34:28:477
-0.2201;0.2441;9.923;0.124;0.9173;9.7629;-0.3595;-0.7172;0.2817;0.0032;-0.0102;-0.0453;480.0;128.69;13.41;-58.45;278.04;-5.51;-0.8;8.0;1002.22;62.416;44.567577;-123.2747;57.38;NaN;;35.06;6.068;156.8;12 / 21;192520;2018-03-07 17:34:28:977
-0.2106;0.146;10.0714;0.1474;0.8372;9.7697;-0.298;-0.8507;0.1046;0.0036;-0.0061;-0.0579;438.0;129.48;12.77;-58.27;277.83;-5.01;-0.87;8.0;1002.24;62.416;44.567577;-123.2747;56.99;NaN;;31.28;6.068;158.2;12 / 21;193019;2018-03-07 17:34:29:476
-0.39;-0.2513;10.0786;0.1109;0.6647;9.7835;-0.313;-0.8639;-0.0063;0.0107;-0.0012;-0.0522;463.0;129.46;12.16;-58.51;276.98;-3.89;-0.65;8.0;1002.25;62.416;44.567577;-123.2747;56.99;NaN;;31.28;6.068;158.2;12 / 21;193519;2018-03-07 17:34:29:976
-0.1986;-0.0598;10.014;0.0615;0.3645;9.7997;-0.1154;-0.6041;-0.0279;-1.0E-4;-0.0175;-0.0555;508.0;129.8;12.53;-57.84;276.99;-3.08;-0.62;8.0;1002.27;62.416;44.567577;-123.2747;57.23;NaN;;27.22;6.068;162.3;12 / 21;194019;2018-03-07 17:34:30:476
-0.2393;0.0311;9.7173;0.0384;0.2438;9.8035;-0.2743;-0.2075;0.0604;-0.0044;-0.0148;-0.0571;535.0;130.01;12.19;-57.97;275.89;-1.42;-0.2;8.0;1002.27;62.416;44.567577;-123.2747;57.23;NaN;;27.22;6.068;162.3;12 / 21;194520;2018-03-07 17:34:30:977
-0.2991;0.1436;9.7603;0.0236;0.2356;9.8038;-0.5766;-0.1425;0.0678;0.0056;-0.0098;-0.0512;550.0;130.14;11.72;-57.29;275.85;-1.35;-0.17;8.0;1002.3;62.416;44.567577;-123.2747;56.86;NaN;;21.1;6.068;166.5;12 / 21;195019;2018-03-07 17:34:31:476
-0.4235;0.2465;10.1288;0.0025;0.2302;9.8039;-0.4346;-0.0179;-0.0269;0.0097;-0.0051;-0.0414;561.0;131.22;11.89;-56.91;275.81;-1.35;-0.06;8.0;1002.29;62.416;44.567577;-123.2747;56.86;NaN;;21.1;6.068;166.5;12 / 21;195521;2018-03-07 17:34:31:978
-0.4642;0.5216;10.0068;-0.0265;0.268;9.803;-0.4355;0.2655;-0.0235;0.0021;-0.0163;-0.0372;566.0;131.11;11.85;-57.26;275.92;-1.57;0.15;8.0;1002.31;62.416;44.567577;-123.2747;57.13;NaN;;14.8;6.068;168.5;12 / 21;196019;2018-03-07 17:34:32:476
-0.3565;0.4666;9.8225;-0.0636;0.3059;9.8017;-0.3739;-0.014;-0.0199;0.007;-0.0079;-0.0266;570.0;130.88;11.28;-56.97;275.6;-1.79;0.37;8.0;1002.31;62.416;44.567577;-123.2747;57.13;NaN;;14.8;6.068;168.5;12 / 21;196520;2018-03-07 17:34:32:977
-0.457;0.5767;10.0211;-0.1037;0.3512;9.7998;-0.3636;0.2495;-0.066;0.007;-0.0069;-0.0221;572.0;131.36;11.14;-57.38;275.69;-1.96;0.58;8.0;1002.31;62.416;44.567577;-123.2747;57.16;NaN;;10.51;6.068;171.5;12 / 21;197020;2018-03-07 17:34:33:477
-0.5982;0.7609;9.8943;-0.3469;0.5905;9.7827;-0.245;0.1421;-0.0283;-0.0011;-0.0051;-0.0172;572.0;130.71;11.12;-58.26;276.53;-3.45;2.03;8.0;1002.31;62.416;44.567577;-123.2747;57.16;NaN;;10.51;6.068;171.5;12 / 21;197520;2018-03-07 17:34:33:977
-0.5886;0.8782;9.8201;-0.4735;0.7215;9.7686;-0.1498;0.1075;0.0175;0.0021;-0.0043;-0.0107;573.0;131.67;11.37;-57.8;276.88;-4.04;2.61;8.0;1002.31;62.416;44.567577;-123.2747;57.21;NaN;;6.41;6.068;171.6;12 / 21;198020;2018-03-07 17:34:34:477
-0.5288;1.2873;9.8058;-0.4902;0.9491;9.7483;-0.0085;0.252;-0.0778;7.0E-4;-0.0014;-0.0076;572.0;131.25;11.09;-57.85;277.16;-4.56;2.8;8.0;1002.32;62.416;44.567577;-123.2747;57.21;NaN;;6.41;6.068;171.6;12 / 21;198520;2018-03-07 17:34:34:977
-0.5432;1.2467;9.8249;-0.5131;1.1344;9.7273;-0.0232;0.1334;-0.0229;-5.0E-4;-0.0012;-0.007;573.0;130.48;10.32;-57.88;277.72;-6.45;2.98;8.0;1002.31;62.416;44.567577;-123.2747;57.39;NaN;;3.56;6.068;171.6;12 / 21;199019;2018-03-07 17:34:35:476
-0.5695;1.261;9.8297;-0.5276;1.2274;9.7152;-0.0225;0.0271;-0.0426;1.0E-4;0.0;-0.0046;573.0;131.26;10.34;-57.92;278.02;-7.14;3.07;8.0;1002.32;62.416;44.567577;-123.2747;57.39;NaN;;3.56;6.068;171.6;12 / 21;199519;2018-03-07 17:34:35:976
-0.5336;1.2371;9.8489;-0.5299;1.2525;9.7119;0.0088;0.0011;-0.0182;-9.0E-4;-0.0022;-0.0023;572.0;131.33;10.54;-57.65;278.56;-7.32;3.13;8.0;1002.31;62.416;44.567577;-123.2747;57.39;NaN;;3.56;6.068;171.6;12 / 21;200020;2018-03-07 17:34:36:477
-0.5527;1.2778;9.8201;-0.5298;1.2813;9.7081;-0.0096;0.0216;0.0226;-0.0015;-0.001;1.0E-4;572.0;131.22;10.61;-57.75;278.64;-7.51;3.12;8.0;1002.31;62.416;44.567577;-123.2747;57.39;NaN;;3.56;6.068;171.6;12 / 21;200519;2018-03-07 17:34:36:976
-0.5408;1.5362;9.8177;-0.5255;1.383;9.6944;0.0117;0.2211;-0.0817;-0.003;-0.001;3.0E-4;571.0;131.05;9.88;-58.06;278.44;-7.99;3.11;8.0;1002.31;62.416;44.567577;-123.2747;57.39;NaN;;3.56;6.068;171.6;12 / 21;201020;2018-03-07 17:34:37:477
-0.5312;1.651;9.7484;-0.5207;1.5327;9.6721;-0.0039;0.0796;-0.0389;-0.0011;-0.001;7.0E-4;571.0;131.45;10.49;-57.85;278.91;-8.99;3.08;8.0;1002.31;62.416;44.567577;-123.2747;57.39;NaN;;3.56;6.068;171.6;12 / 21;201520;2018-03-07 17:34:37:977
-0.5264;1.6415;9.7388;-0.5204;1.5848;9.6637;-0.0047;0.0334;-0.024;1.0E-4;0.0;3.0E-4;571.0;131.14;10.44;-57.8;279.04;-9.26;3.08;8.0;1002.3;62.416;44.567577;-123.2747;57.85;NaN;;0.0;6.068;;12 / 21;202019;2018-03-07 17:34:38:476
-0.5264;2.0219;9.7077;-0.5144;1.7761;9.6308;0.0066;0.2448;-0.0424;-5.0E-4;-8.0E-4;-5.0E-4;569.0;130.64;10.71;-58.15;279.87;-10.1;3.07;8.0;1002.31;62.416;44.567577;-123.2747;57.85;NaN;;0.0;6.068;;12 / 21;202520;2018-03-07 17:34:38:977
-0.5145;1.9143;9.7364;-0.507;1.8863;9.6102;0.0139;0.0688;-0.0334;1.0E-4;-0.0018;-0.0027;570.0;130.82;9.88;-57.49;279.75;-10.96;3.05;8.0;1002.31;62.416;44.567577;-123.2747;57.85;NaN;;0.0;6.068;;12 / 21;203020;2018-03-07 17:34:39:477
-0.4307;3.3619;9.4612;-0.4947;2.0501;9.5772;0.0504;1.1556;-0.1984;0.0109;-0.0038;-0.007;569.0;131.48;9.93;-58.2;280.33;-12.07;2.96;8.0;1002.28;62.416;44.567577;-123.2747;57.85;NaN;;0.0;6.068;;12 / 21;203520;2018-03-07 17:34:39:977
-0.414;3.5653;9.4229;-0.4473;2.8791;9.3638;0.0482;0.7034;-0.1471;-5.0E-4;-0.0094;-0.0162;569.0;131.78;9.65;-56.72;281.9;-16.09;2.82;8.0;1002.27;62.416;44.567577;-123.2747;57.85;NaN;;0.0;6.068;;12 / 21;204019;2018-03-07 17:34:40:476
-0.5384;3.3212;9.4205;-0.4593;3.2586;9.238;-0.0273;0.2974;-0.0488;-0.004;-6.0E-4;-0.0119;569.0;133.1;8.56;-55.09;282.54;-19.41;2.85;8.0;1002.27;62.416;44.567577;-123.2747;57.85;NaN;;0.0;6.068;;12 / 21;204520;2018-03-07 17:34:40:977
-0.414;3.4911;9.3081;-0.4423;3.3324;9.2125;0.0501;0.1689;-0.0304;7.0E-4;-0.0126;-0.0162;569.0;131.85;9.87;-55.07;283.16;-19.8;2.79;8.0;1002.26;62.416;44.567577;-123.2747;58.41;NaN;;7.13;6.068;175.1;12 / 21;205020;2018-03-07 17:34:41:477
-0.3541;2.9862;9.6335;-0.3737;3.3215;9.2194;0.0241;-0.3268;0.3052;-0.0062;-0.0047;-0.0223;571.0;130.8;9.92;-57.12;283.44;-20.02;2.34;8.0;1002.25;62.416;44.567577;-123.2747;58.41;NaN;;7.13;6.068;175.1;12 / 21;205519;2018-03-07 17:34:41:976
-0.2201;3.0413;9.6287;-0.3412;3.2234;9.2555;0.1005;-0.3989;0.0666;-0.0182;-0.0159;-0.0245;573.0;131.8;10.58;-57.09;283.41;-19.38;2.18;8.0;1002.26;62.416;44.567577;-123.2747;58.22;NaN;;13.54;6.068;176.1;12 / 21;206019;2018-03-07 17:34:42:476
-0.4235;2.79;9.947;-0.2914;3.1109;9.2956;-0.1036;-0.3221;0.1108;-0.0172;-0.0071;-0.0264;577.0;132.91;10.89;-57.83;282.95;-18.5;1.8;8.0;1002.26;62.416;44.567577;-123.2747;58.22;NaN;;13.54;6.068;176.1;12 / 21;206519;2018-03-07 17:34:42:976
-0.3829;2.6919;9.9135;-0.2113;2.9698;9.3438;-0.1357;-0.5607;0.3788;-0.0046;-0.0067;-0.0188;580.0;133.17;10.42;-58.48;282.17;-17.94;1.39;8.0;1002.27;62.416;44.567577;-123.2747;57.96;NaN;;18.07;6.068;178.0;12 / 21;207020;2018-03-07 17:34:43:477
-0.0455;2.2875;10.0475;-0.1415;2.9343;9.3563;0.1178;-0.5478;-0.0671;0.0148;-0.0254;-0.0056;581.0;132.24;9.36;-57.34;281.32;-17.41;0.87;8.0;1002.24;62.416;44.567577;-123.2747;57.96;NaN;;18.07;6.068;178.0;12 / 21;207520;2018-03-07 17:34:43:977
0.3422;2.3665;9.064;-0.0985;2.9653;9.3471;-0.2397;-0.3611;0.4569;0.0258;-0.0122;-0.0083;579.0;131.46;9.53;-57.25;281.78;-17.6;0.6;8.0;1002.25;62.416;44.567577;-123.2747;57.71;NaN;;23.18;6.068;178.6;12 / 21;208020;2018-03-07 17:34:44:477
-0.1005;2.1894;9.0018;-0.0066;3.0147;9.3318;0.1825;-0.7297;-0.2881;0.0492;-0.0073;-0.0082;578.0;131.79;10.9;-57.14;281.91;-17.71;0.03;8.0;1002.26;62.416;44.567577;-123.2747;57.71;NaN;;23.18;6.068;178.6;12 / 21;208519;2018-03-07 17:34:44:976
-0.1603;2.2875;9.7005;0.0509;2.9487;9.3527;0.6923;-0.977;0.2308;0.0765;0.0104;-0.0068;582.0;131.09;9.11;-58.12;280.97;-17.15;-0.36;8.0;1002.26;62.416;44.567577;-123.2747;57.84;NaN;;25.49;6.068;178.6;12 / 21;209020;2018-03-07 17:34:45:477
-0.0479;2.1966;10.4758;0.0199;2.9933;9.3387;0.1178;-0.8745;0.6174;-0.062;0.0094;-0.0105;578.0;129.37;8.51;-54.55;281.08;-17.77;-0.12;8.0;1002.26;62.416;44.567577;-123.2747;57.84;NaN;;25.49;6.068;178.6;12 / 21;209521;2018-03-07 17:34:45:978
0.3948;1.2682;7.1737;-0.0088;2.7715;9.4069;0.0998;-1.0957;0.2018;-0.0327;0.0238;-0.0133;578.0;130.14;10.2;-55.68;281.27;-16.91;0.05;8.0;1002.23;62.416;44.567577;-123.2747;57.9;NaN;;27.07;6.068;180.7;12 / 21;210020;2018-03-07 17:34:46:477
0.2225;1.4716;9.3344;-0.0333;1.9437;9.612;0.115;-1.6077;1.2294;0.0068;-0.0093;-0.0052;583.0;131.42;12.34;-58.58;280.21;-11.43;0.2;8.0;1002.22;62.416;44.567577;-123.2747;57.9;NaN;;27.07;6.068;180.7;12 / 21;210520;2018-03-07 17:34:46:977
-0.3326;1.4668;9.4421;-0.1226;1.8515;9.6295;-0.3448;-0.197;0.8082;-0.0162;0.0401;-0.0025;580.0;132.3;12.17;-58.97;280.04;-11.11;0.35;8.0;1002.25;62.416;44.567577;-123.2747;57.68;NaN;;28.15;6.068;180.6;12 / 21;211019;2018-03-07 17:34:47:476
-0.3135;1.8042;10.739;-0.1639;2.0017;9.5988;-0.2529;-0.04;1.0794;0.007;0.0055;-0.0011;550.0;132.87;12.08;-59.01;280.4;-11.77;0.95;8.0;1002.25;62.416;44.567577;-123.2747;57.68;NaN;;28.15;6.068;180.6;12 / 21;211520;2018-03-07 17:34:47:977
-0.2249;2.0411;9.8034;-0.1972;1.9686;9.605;0.1899;-0.1216;0.4912;-0.0113;0.0135;3.0E-4;550.0;133.92;11.4;-60.53;280.05;-11.62;1.04;8.0;1002.27;62.416;44.567577;-123.2747;57.2;NaN;;28.04;6.068;180.3;12 / 21;212020;2018-03-07 17:34:48:477
-0.39;1.6582;10.0594;-0.275;2.0147;9.5935;-0.0236;0.0305;0.1866;-0.0231;0.0163;0.0062;574.0;133.71;10.09;-58.76;279.74;-11.86;1.64;8.0;1002.28;62.416;44.567577;-123.2747;57.2;NaN;;28.04;6.068;180.3;12 / 21;212519;2018-03-07 17:34:48:976
-0.6197;2.0387;10.014;-0.3341;1.9741;9.6001;-0.1429;0.0173;0.2769;-0.0135;0.0098;0.0125;575.0;132.86;10.36;-59.28;280.21;-11.65;1.93;8.0;1002.29;62.416;44.567577;-123.2747;56.9;NaN;;30.13;6.068;179.9;12 / 21;213019;2018-03-07 17:34:49:476
-0.5767;2.0315;9.8225;-0.3859;1.9453;9.604;-0.173;0.0969;-0.0957;-0.0239;0.0116;0.0129;575.0;132.48;11.21;-59.41;280.24;-11.52;1.98;8.0;1002.3;62.416;44.567577;-123.2747;56.9;NaN;;30.13;6.068;179.9;12 / 21;213520;2018-03-07 17:34:49:977
-0.3972;1.8831;9.1573;-0.4254;1.9081;9.6098;-0.0386;0.0785;-0.151;-0.003;0.0092;0.0148;575.0;132.65;11.05;-59.35;280.19;-11.25;2.48;8.0;1002.31;62.416;44.567577;-123.2747;56.75;NaN;;33.52;6.068;178.6;12 / 21;214020;2018-03-07 17:34:50:477
-0.5719;1.8353;9.8417;-0.4381;1.959;9.599;-0.0049;-0.0582;0.1983;0.0082;0.0012;0.0174;572.0;132.59;11.36;-59.01;280.35;-11.52;2.61;8.0;1002.33;62.416;44.567577;-123.2747;56.75;NaN;;33.52;6.068;178.6;12 / 21;214519;2018-03-07 17:34:50:976
-0.6126;1.931;10.3681;-0.5265;1.926;9.6012;-0.0159;-0.1834;0.5471;-0.0023;0.0277;0.0089;571.0;132.4;12.22;-59.26;280.85;-11.33;2.98;8.0;1002.36;62.416;44.567577;-123.2747;56.4;NaN;;35.93;6.068;178.6;12 / 21;215019;2018-03-07 17:34:51:476
-0.6891;2.132;10.2126;-0.5548;2.0626;9.5712;-0.2877;-0.2213;0.218;0.0512;-0.0118;0.0219;564.0;133.91;11.63;-57.94;281.08;-12.14;3.32;8.0;1002.39;62.416;44.567577;-123.2747;56.4;NaN;;35.93;6.068;178.6;12 / 21;215520;2018-03-07 17:34:51:977
-0.5192;1.651;10.1575;-0.5006;2.1259;9.5604;0.0399;-0.2514;0.1186;0.0025;0.0194;0.0144;558.0;132.56;10.31;-60.79;281.45;-12.53;3.06;8.0;1002.4;62.416;44.567577;-123.2747;56.21;NaN;;37.69;6.068;178.7;12 / 21;216019;2018-03-07 17:34:52:476
-0.8686;1.8042;10.3777;-0.5245;2.113;9.5619;-0.0886;-0.3315;0.2568;0.0062;-0.0116;0.0135;557.0;132.13;10.1;-58.35;280.51;-12.45;3.22;8.0;1002.41;62.416;44.567577;-123.2747;56.21;NaN;;37.69;6.068;178.7;12 / 21;216520;2018-03-07 17:34:52:977
-0.5216;1.8066;9.6814;-0.4874;2.0321;9.5814;0.0379;-0.1304;0.1742;0.0121;4.0E-4;0.0078;560.0;131.67;9.72;-58.61;280.39;-12.17;2.92;8.0;1002.4;62.416;44.567577;-123.2747;56.09;NaN;;39.38;6.068;176.7;12 / 21;217020;2018-03-07 17:34:53:477
-0.4116;1.8329;9.5067;-0.4115;1.9546;9.6011;0.0313;-0.1047;-0.2174;-0.0023;-0.0024;-0.0029;563.0;131.91;9.37;-58.45;279.43;-11.5;2.45;8.0;1002.41;62.416;44.567577;-123.2747;56.09;NaN;;39.38;6.068;176.7;12 / 21;217520;2018-03-07 17:34:53:977
-0.347;1.8018;9.3272;-0.3561;1.864;9.6213;-0.0567;-0.019;0.0345;-0.0011;-0.0041;-0.0015;566.0;131.4;9.66;-58.55;279.7;-10.98;2.18;8.0;1002.41;62.416;44.567577;-123.2747;56.07;NaN;;40.03;6.068;177.1;12 / 21;218020;2018-03-07 17:34:54:477
-0.213;1.4477;9.5067;-0.3127;1.8117;9.6328;-0.0419;-0.1014;0.0156;0.0117;-0.0083;-7.0E-4;567.0;131.51;10.41;-58.62;279.4;-10.65;1.86;8.0;1002.41;62.416;44.567577;-123.2747;56.07;NaN;;40.03;6.068;177.1;12 / 21;218520;2018-03-07 17:34:54:977
-0.1675;1.8879;10.0116;-0.257;1.8218;9.6325;-0.0403;-0.0327;0.4354;0.0091;-8.0E-4;-0.0058;569.0;131.23;10.37;-58.33;279.33;-10.69;1.59;8.0;1002.41;62.416;44.567577;-123.2747;55.34;NaN;;40.82;6.068;177.3;12 / 21;219020;2018-03-07 17:34:55:477
-0.055;1.8257;9.2794;-0.1818;1.8727;9.6245;-0.2297;-0.0287;0.0686;0.0115;-0.0395;0.0023;569.0;131.93;10.48;-58.05;279.7;-10.86;1.37;8.0;1002.42;62.416;44.567577;-123.2747;55.34;NaN;;40.82;6.068;177.3;12 / 21;219519;2018-03-07 17:34:55:976
0.3493;1.785;8.4514;-0.0893;1.7863;9.6422;0.3244;-0.1152;-0.4666;-0.0465;-0.0344;-0.006;570.0;130.42;10.39;-58.06;279.18;-10.71;0.67;8.0;1002.41;62.416;44.567577;-123.2747;55.18;NaN;;41.44;6.068;177.6;12 / 21;220019;2018-03-07 17:34:56:476
-0.0431;1.462;10.0164;-0.1006;1.6942;9.6587;0.1762;-0.0207;-0.2876;0.0227;0.0122;-0.0154;572.0;130.64;10.74;-58.58;279.26;-9.95;0.6;8.0;1002.42;62.416;44.567577;-123.2747;55.18;NaN;;41.44;6.068;177.6;12 / 21;220519;2018-03-07 17:34:56:976
-0.1747;1.7468;9.8895;-0.1029;1.7325;9.6519;0.0556;0.0105;0.2797;0.0148;-0.0163;-0.0066;569.0;131.68;10.68;-58.09;279.2;-10.09;0.7;8.0;1002.43;62.416;44.567577;-123.2747;55.21;NaN;;42.01;6.068;178.1;12 / 21;221019;2018-03-07 17:34:57:476
0.0287;1.6152;9.8632;-0.0512;1.7215;9.6542;0.1238;-0.0444;0.1833;-0.0032;-0.0098;-0.0087;570.0;131.61;10.24;-58.81;278.77;-10.11;0.3;8.0;1002.43;62.416;44.567577;-123.2747;55.21;NaN;;42.01;6.068;178.1;12 / 21;221519;2018-03-07 17:34:57:976
-0.0838;1.6845;9.7651;-0.0532;1.725;9.6536;-0.0343;-0.024;0.2255;-0.0109;0.0045;-0.0052;571.0;131.66;10.29;-58.81;278.81;-10.18;0.34;8.0;1002.43;62.416;44.567577;-123.2747;55.15;NaN;;42.55;6.068;178.8;12 / 21;222019;2018-03-07 17:34:58:476
-0.2153;1.8425;9.9278;-0.0687;1.6785;9.6617;-0.2528;0.003;0.0483;-0.0085;-0.0049;-0.0015;569.0;131.64;10.46;-58.43;278.65;-9.91;0.46;8.0;1002.43;62.416;44.567577;-123.2747;55.15;NaN;;42.55;6.068;178.8;12 / 21;222519;2018-03-07 17:34:58:976
0.0933;1.5482;9.7268;-0.0358;1.6421;9.6681;-0.0403;-0.007;-0.0512;-0.016;-0.014;0.0044;571.0;130.96;10.62;-58.39;279.02;-9.72;0.29;8.0;1002.43;62.416;44.567577;-123.2747;54.82;NaN;;42.8;6.068;179.4;12 / 21;223020;2018-03-07 17:34:59:477
-0.2513;1.7611;9.8991;-0.0347;1.6421;9.6681;0.0322;0.0338;0.1812;-0.0089;-0.0106;0.0027;571.0;131.25;10.61;-57.75;278.97;-9.64;0.21;8.0;1002.45;62.416;44.567577;-123.2747;54.82;NaN;;42.8;6.068;179.4;12 / 21;223520;2018-03-07 17:34:59:977
-0.213;1.7013;9.8225;-0.0489;1.6461;9.6674;-0.1246;-0.023;0.0917;-0.0083;0.0014;0.0054;568.0;131.32;10.76;-57.96;278.97;-9.64;0.22;8.0;1002.47;62.416;44.567577;-123.2747;54.69;NaN;;43.24;6.068;179.2;12 / 21;224020;2018-03-07 17:35:00:477
-0.1795;1.4907;10.3394;-0.0498;1.623;9.6713;0.0816;-0.0827;0.2449;0.0042;-2.0E-4;0.0058;559.0;133.5;9.13;-55.07;277.76;-9.53;0.3;8.0;1002.48;62.416;44.567577;-123.2747;54.69;NaN;;43.24;6.068;179.2;12 / 21;224521;2018-03-07 17:35:00:978
0.079;1.1629;9.6311;-0.0608;1.601;9.6749;-0.129;-0.3562;-0.1849;-0.0025;0.0023;0.006;554.0;132.4;9.96;-55.49;278.23;-9.45;0.4;8.0;1002.48;62.416;44.567577;-123.2747;54.53;NaN;;43.78;6.068;179.3;12 / 21;225019;2018-03-07 17:35:01:476
-0.0861;1.1198;9.9828;-0.0351;1.5411;9.6847;-0.0769;-0.3101;-0.0215;-0.0093;-0.0063;0.008;562.0;131.47;10.98;-58.63;278.84;-9.14;0.25;8.0;1002.5;62.416;44.567577;-123.2747;54.53;NaN;;43.78;6.068;179.3;12 / 21;225520;2018-03-07 17:35:01:977
-0.1149;1.9071;9.4014;0.0197;1.5508;9.6832;-0.0423;0.2;-0.2919;0.0054;-0.013;0.0027;567.0;130.32;11.21;-58.73;278.8;-9.05;-0.02;8.0;1002.52;62.416;44.567577;-123.2747;54.08;NaN;;43.6;6.068;179.0;12 / 21;226020;2018-03-07 17:35:02:477
-0.3278;1.8209;10.3035;0.076;1.5553;9.6822;0.4121;0.116;-0.0161;-0.004;0.0122;-0.0074;571.0;130.21;10.48;-57.76;278.25;-9.13;-0.45;8.0;1002.52;62.416;44.567577;-123.2747;54.08;NaN;;43.6;6.068;179.0;12 / 21;226520;2018-03-07 17:35:02:977
0.1555;1.8497;9.8345;0.1081;1.645;9.6671;0.0961;0.1452;0.1592;0.0078;0.0035;-0.0046;564.0;130.52;10.52;-57.33;278.61;-9.33;-0.5;8.0;1002.52;62.416;44.567577;-123.2747;53.56;NaN;;43.38;6.068;178.8;12 / 21;227019;2018-03-07 17:35:03:476
0.067;1.7779;10.5524;0.1148;1.6492;9.6663;0.0464;0.1085;0.356;-0.0205;-0.011;-0.0032;536.0;130.22;10.85;-58.22;278.85;-9.68;-0.68;8.0;1002.54;62.416;44.567577;-123.2747;53.56;NaN;;43.38;6.068;178.8;12 / 21;227520;2018-03-07 17:35:03:977
0.335;1.9478;9.9613;0.1693;1.7113;9.6547;-0.042;0.0436;0.2065;0.0231;-0.0098;-0.0032;557.0;130.0;10.5;-58.0;278.93;-10.02;-0.92;8.0;1002.54;62.416;44.567577;-123.2747;53.16;NaN;;44.35;6.068;178.9;12 / 21;228020;2018-03-07 17:35:04:477
0.3589;1.8138;9.9565;0.2402;1.839;9.6297;0.0104;-0.0178;0.232;0.0404;0.0086;-0.0036;563.0;129.63;10.91;-57.67;278.99;-10.57;-1.52;8.0;1002.55;62.416;44.567577;-123.2747;53.16;NaN;;44.35;6.068;178.9;12 / 21;228520;2018-03-07 17:35:04:977
-0.2465;1.7252;10.1025;0.1186;1.81;9.6374;-0.2788;-0.2183;0.2676;-0.0135;0.0253;0.008;566.0;130.48;10.84;-58.12;279.21;-10.73;-0.88;8.0;1002.55;62.416;44.567577;-123.2747;52.97;NaN;;45.29;6.068;178.9;12 / 21;229020;2018-03-07 17:35:05:477
-0.2225;1.5458;9.679;0.0793;1.8038;9.639;-0.144;-0.0418;0.2676;0.016;0.0014;0.0127;563.0;130.74;9.56;-58.19;278.78;-10.6;-0.47;8.0;1002.55;62.416;44.567577;-123.2747;52.97;NaN;;45.29;6.068;178.9;12 / 21;229520;2018-03-07 17:35:05:977
-0.0215;1.742;9.789;0.0355;1.8206;9.6361;-0.077;-0.0179;0.2966;0.0101;0.0076;0.0113;565.0;130.76;9.28;-57.28;278.35;-10.69;-0.33;8.0;1002.55;62.416;44.567577;-123.2747;52.76;NaN;;45.65;6.068;178.4;12 / 21;230019;2018-03-07 17:35:06:476
0.0694;1.7515;9.5976;0.0448;1.8458;9.6313;0.0796;-0.0421;-0.1777;0.0082;-0.0114;0.007;565.0;130.35;10.26;-57.33;278.92;-10.85;-0.27;8.0;1002.54;62.416;44.567577;-123.2747;52.76;NaN;;45.65;6.068;178.4;12 / 21;230519;2018-03-07 17:35:06:976
0.0742;1.6128;9.8201;0.0821;1.7417;9.6504;-0.0328;-0.1251;-0.543;-0.0227;-0.0073;-3.0E-4;566.0;130.44;10.56;-57.14;278.65;-10.32;-0.5;8.0;1002.55;62.416;44.567577;-123.2747;52.89;NaN;;45.68;6.068;177.8;12 / 21;231020;2018-03-07 17:35:07:477
0.1795;1.5864;10.3179;0.0995;1.7043;9.6569;0.0844;-0.0815;0.218;-0.007;4.0E-4;-0.0017;567.0;129.97;9.42;-57.19;278.1;-10.07;-0.59;8.0;1002.52;62.416;44.567577;-123.2747;52.89;NaN;;45.68;6.068;177.8;12 / 21;231520;2018-03-07 17:35:07:977
-0.0574;1.7707;9.6909;0.085;1.7133;9.6555;-0.2689;-0.0067;0.1314;0.0099;0.0041;0.0017;566.0;130.01;10.23;-58.2;278.6;-10.0;-0.49;8.0;1002.52;62.416;44.567577;-123.2747;52.79;NaN;;45.54;6.068;177.9;12 / 21;232019;2018-03-07 17:35:08:476
-0.2393;1.6917;9.4229;0.0855;1.7185;9.6545;-0.1601;-0.0086;-0.3445;-0.0046;0.0078;0.008;566.0;130.05;10.18;-57.76;278.61;-10.07;-0.54;8.0;1002.49;62.416;44.567577;-123.2747;52.79;NaN;;45.54;6.068;177.9;12 / 21;232519;2018-03-07 17:35:08:976
-0.0694;1.4333;9.5186;0.052;1.6937;9.6591;-0.0735;-0.1217;0.118;-0.0074;0.0049;0.0162;564.0;129.82;9.7;-57.43;278.64;-10.03;-0.36;8.0;1002.51;62.416;44.567577;-123.2747;52.87;NaN;;45.32;6.068;177.9;12 / 21;233020;2018-03-07 17:35:09:477
0.1412;1.8688;9.5952;0.0536;1.6841;9.6608;0.1037;0.0644;-0.1098;-0.0101;0.0137;0.007;546.0;130.29;11.1;-58.53;279.1;-9.9;-0.29;8.0;1002.5;62.416;44.567577;-123.2747;52.87;NaN;;45.32;6.068;177.9;12 / 21;233519;2018-03-07 17:35:09:976
0.122;1.9406;10.0403;0.0254;1.7247;9.6538;-0.0073;0.1425;0.2863;0.0093;-0.0126;-0.0042;557.0;129.84;10.24;-57.82;278.66;-9.94;-0.13;8.0;1002.51;62.416;44.567577;-123.2747;53.27;NaN;;45.29;6.068;176.6;12 / 21;234020;2018-03-07 17:35:10:477
0.1316;1.5769;10.0116;0.0666;1.7431;9.6503;0.2381;0.0173;-0.0738;-0.0052;0.0059;-0.007;561.0;129.84;10.13;-57.95;278.72;-10.24;-0.4;8.0;1002.52;62.416;44.567577;-123.2747;53.27;NaN;;45.29;6.068;176.6;12 / 21;234519;2018-03-07 17:35:10:976
0.3278;1.8185;9.4301;0.0782;1.7359;9.6515;0.1395;0.1051;-0.3096;-0.0036;0.0043;-0.0062;563.0;130.14;10.03;-57.27;278.65;-10.3;-0.45;8.0;1002.49;62.416;44.567577;-123.2747;53.36;NaN;;45.43;6.068;177.0;12 / 21;235020;2018-03-07 17:35:11:477
0.0814;1.7898;9.7914;0.078;1.7237;9.6537;-0.0598;0.0344;0.289;-1.0E-4;-0.0069;-0.0032;562.0;129.57;10.06;-57.43;278.6;-10.17;-0.45;8.0;1002.5;62.416;44.567577;-123.2747;53.36;NaN;;45.43;6.068;177.0;12 / 21;235519;2018-03-07 17:35:11:976
-0.469;2.1416;10.0235;0.098;1.7422;9.6502;0.2798;0.0103;-0.3512;0.0066;-0.0079;-0.0046;532.0;129.13;10.7;-57.48;279.08;-10.23;-0.58;8.0;1002.49;62.416;44.567577;-123.2747;53.11;NaN;;45.83;6.068;177.2;12 / 21;236020;2018-03-07 17:35:12:477
-0.0885;1.8209;10.1408;0.1068;1.7626;9.6464;-0.018;0.0885;0.2104;-0.0125;-0.0036;-0.0025;527.0;129.82;9.66;-57.75;278.73;-10.43;-0.64;8.0;1002.47;62.416;44.567577;-123.2747;53.11;NaN;;45.83;6.068;177.2;12 / 21;236519;2018-03-07 17:35:12:976
-0.0502;1.9549;9.5737;0.1043;1.7675;9.6455;-0.0551;0.2022;-0.4474;-0.0074;0.0018;0.0023;524.0;130.13;10.3;-58.02;278.7;-10.35;-0.64;8.0;1002.46;62.416;44.567577;-123.2747;53.35;NaN;;45.36;6.068;177.5;12 / 21;237019;2018-03-07 17:35:13:476
-0.2153;2.254;10.1192;0.0913;1.7405;9.6505;-0.0659;0.0811;0.3834;0.0054;0.0012;0.0015;545.0;129.95;10.39;-57.81;278.67;-10.22;-0.54;8.0;1002.47;62.416;44.567577;-123.2747;53.35;NaN;;45.36;6.068;177.5;12 / 21;237520;2018-03-07 17:35:13:977
-0.1675;1.8927;10.2509;0.0829;1.7838;9.6427;-0.1189;0.0721;0.4155;-0.0064;-8.0E-4;0.0034;560.0;129.97;10.53;-57.02;279.14;-10.49;-0.49;8.0;1002.45;62.416;44.567577;-123.2747;53.36;NaN;;46.22;6.068;177.8;12 / 21;238019;2018-03-07 17:35:14:476
0.189;1.7061;9.9063;0.0856;1.7679;9.6456;0.0083;0.0557;0.0901;0.016;0.0045;0.0021;560.0;129.74;10.54;-57.24;279.05;-10.27;-0.5;8.0;1002.46;62.416;44.567577;-123.2747;53.36;NaN;;46.22;6.068;177.8;12 / 21;238519;2018-03-07 17:35:14:976
0.1555;2.077;9.5139;0.0909;1.7589;9.6472;0.0948;0.0888;-0.2861;-0.0119;0.0047;0.0029;561.0;129.75;10.8;-57.17;279.09;-10.36;-0.49;8.0;1002.45;62.416;44.567577;-123.2747;53.54;NaN;;47.23;6.068;177.5;12 / 21;239020;2018-03-07 17:35:15:477
0.1579;1.9286;9.0784;0.0939;1.7364;9.6512;0.0545;0.1569;-0.5399;0.004;-0.0059;0.0036;563.0;130.29;10.3;-56.93;278.57;-10.15;-0.53;8.0;1002.46;62.416;44.567577;-123.2747;53.54;NaN;;47.23;6.068;177.5;12 / 21;239519;2018-03-07 17:35:15:976
0.0239;1.8425;9.4636;0.0967;1.7323;9.652;-0.0385;0.2053;0.114;-0.0087;-0.0098;0.0032;555.0;129.66;10.6;-56.81;279.0;-10.17;-0.52;8.0;1002.46;62.416;44.567577;-123.2747;53.3;NaN;;48.06;6.068;177.4;12 / 21;240020;2018-03-07 17:35:16:477
0.2823;1.7252;9.4014;0.1037;1.7022;9.6572;0.1293;-0.0994;-0.0081;-0.0115;0.0079;-0.0078;531.0;130.07;11.23;-57.62;278.99;-10.0;-0.62;8.0;1002.46;62.416;44.567577;-123.2747;53.3;NaN;;48.06;6.068;177.4;12 / 21;240520;2018-03-07 17:35:16:977
-0.1005;1.73;10.2173;0.0573;1.6797;9.6616;-0.0034;0.0316;0.0821;-0.0176;0.0287;-9.0E-4;416.0;129.72;10.74;-57.35;278.89;-9.9;-0.58;8.0;1002.47;62.416;44.567577;-123.2747;53.41;NaN;;49.03;6.068;177.1;12 / 21;241019;2018-03-07 17:35:17:476
0.1268;1.4405;10.0714;0.0207;1.6557;9.6659;0.0031;0.0162;0.1428;-0.0074;0.0098;0.0064;385.0;130.16;11.78;-57.07;279.39;-9.83;-0.12;8.0;1002.48;62.416;44.567577;-123.2747;53.41;NaN;;49.03;6.068;177.1;12 / 21;241519;2018-03-07 17:35:17:976
-0.323;1.4261;9.6814;-0.003;1.6662;9.6641;-0.119;-0.0548;-0.194;-0.0121;-0.0096;0.0111;427.0;130.58;11.2;-57.86;278.99;-9.77;0.06;8.0;1002.49;62.416;44.567577;-123.2747;52.77;NaN;;50.8;6.068;176.1;12 / 21;242020;2018-03-07 17:35:18:477
-0.1555;1.3232;10.215;-0.0179;1.5682;9.6804;-0.1064;-0.2678;0.2299;-0.0133;0.002;0.0068;481.0;130.42;11.08;-57.54;278.88;-9.35;0.06;8.0;1002.52;62.416;44.567577;-123.2747;52.77;NaN;;50.8;6.068;176.1;12 / 21;242519;2018-03-07 17:35:18:976
-0.2704;0.7729;10.6313;-0.0606;1.5191;9.6881;-0.1256;-0.2052;-0.0058;0.0074;0.0086;0.0066;539.0;130.36;10.99;-58.1;278.77;-9.01;0.23;8.0;1002.54;62.416;44.567577;-123.2747;52.48;NaN;;50.33;6.068;177.1;12 / 21;243019;2018-03-07 17:35:19:476
-0.1507;1.1438;9.3727;0.009;1.5026;9.6908;0.4606;-0.0877;0.0763;-0.0032;-0.0077;-0.0103;556.0;130.67;11.52;-57.84;278.99;-8.81;-0.05;8.0;1002.57;62.416;44.567577;-123.2747;52.48;NaN;;50.33;6.068;177.1;12 / 21;243520;2018-03-07 17:35:19:977
0.2752;1.8879;10.1575;0.1006;1.6481;9.6666;0.1554;0.0623;0.2988;0.0044;0.0059;-0.0186;556.0;129.79;11.11;-58.39;278.73;-9.26;-0.45;8.0;1002.57;62.416;44.567577;-123.2747;52.22;NaN;;49.68;6.068;176.9;12 / 21;244020;2018-03-07 17:35:20:477
0.3517;1.8066;9.411;0.1138;1.651;9.666;0.0442;0.0904;-0.4207;-0.0251;-0.0102;-0.0156;560.0;130.95;9.66;-54.25;278.14;-9.82;-0.62;8.0;1002.57;62.416;44.567577;-123.2747;52.22;NaN;;49.68;6.068;176.9;12 / 21;244519;2018-03-07 17:35:20:976
0.1101;1.7492;9.5306;0.1774;1.635;9.6678;-0.311;0.1093;0.2197;0.0119;-0.024;0.0032;562.0;131.61;10.92;-55.1;278.34;-9.48;-1.08;8.0;1002.58;62.416;44.567577;-123.2747;52.19;NaN;;49.75;6.068;177.6;12 / 21;245021;2018-03-07 17:35:21:478
0.1723;1.7348;9.7962;0.184;1.6676;9.6621;-0.1049;0.0641;-0.2946;0.0062;-0.002;0.004;562.0;129.58;10.69;-58.02;278.76;-9.72;-1.13;8.0;1002.61;62.416;44.567577;-123.2747;52.19;NaN;;49.75;6.068;177.6;12 / 21;245519;2018-03-07 17:35:21:976
0.1388;1.8999;9.6144;0.1071;1.6402;9.6679;-0.3053;0.0297;0.2344;-0.0125;0.0269;0.0021;561.0;130.35;10.54;-57.82;278.8;-9.73;-0.98;8.0;1002.6;62.416;44.567577;-123.2747;52.27;NaN;;50.29;6.068;178.0;12 / 21;246019;2018-03-07 17:35:22:476
-0.0622;1.9956;9.4875;0.02;1.7167;9.6552;-0.1709;0.202;-0.0068;-0.005;-0.0138;0.0111;562.0;130.46;10.92;-58.7;279.22;-10.08;-0.12;8.0;1002.62;62.416;44.567577;-123.2747;52.27;NaN;;50.29;6.068;178.0;12 / 21;246520;2018-03-07 17:35:22:977
0.0838;1.6941;9.2004;0.0315;1.7382;9.6513;-0.0062;0.0985;-0.3231;0.0044;-0.0134;0.0111;562.0;130.6;10.04;-58.7;278.76;-10.16;-0.1;8.0;1002.63;62.416;44.567577;-123.2747;52.4;NaN;;51.01;6.068;177.9;12 / 21;247020;2018-03-07 17:35:23:477
-0.122;1.7204;10.1192;0.0;1.7365;9.6517;-0.0926;-0.0335;0.4562;-0.0115;0.0067;0.0068;561.0;130.64;10.15;-58.09;278.73;-10.2;0.0;8.0;1002.62;62.416;44.567577;-123.2747;52.4;NaN;;51.01;6.068;177.9;12 / 21;247521;2018-03-07 17:35:23:978
-0.2489;1.742;10.0235;-0.0243;1.7554;9.6482;-0.2937;0.0851;0.1715;-0.0044;-0.0138;0.0097;562.0;130.33;10.86;-58.04;279.3;-10.32;0.12;8.0;1002.63;62.416;44.567577;-123.2747;52.01;NaN;;52.02;6.068;177.4;12 / 21;248021;2018-03-07 17:35:24:478
-0.0335;1.9238;10.349;-0.013;1.7635;9.6468;-0.1049;0.0973;0.0332;-0.0068;-0.0018;0.0058;561.0;130.45;10.74;-58.51;279.4;-10.4;0.09;8.0;1002.66;62.416;44.567577;-123.2747;52.01;NaN;;52.02;6.068;177.4;12 / 21;248519;2018-03-07 17:35:24:976
0.0431;1.8544;9.5761;-0.002;1.7915;9.6416;0.0348;0.0153;-0.0719;0.0315;-0.0022;-0.0021;559.0;129.67;10.7;-57.92;279.24;-10.26;-0.02;8.0;1002.66;62.416;44.567577;-123.2747;51.97;NaN;;53.14;6.068;177.0;12 / 21;249019;2018-03-07 17:35:25:476
-0.1436;1.5625;9.8536;0.0042;1.7193;9.6548;0.1026;-0.2742;-0.383;-0.0068;-0.0018;-5.0E-4;558.0;130.25;10.9;-58.09;279.19;-10.14;-0.04;8.0;1002.66;62.416;44.567577;-123.2747;51.97;NaN;;53.14;6.068;177.0;12 / 21;249519;2018-03-07 17:35:25:976
0.2417;1.2754;9.4062;0.0084;1.6351;9.6694;0.0417;-0.4659;0.331;0.0119;-0.0091;-0.0054;561.0;130.15;10.93;-58.49;279.02;-9.75;-0.05;8.0;1002.68;62.416;44.567577;-123.2747;51.93;NaN;;53.64;6.068;177.0;12 / 21;250020;2018-03-07 17:35:26:477
0.1196;1.2203;9.6885;0.026;1.6083;9.6738;0.2098;-0.3241;0.0614;-3.0E-4;0.0053;-0.0078;560.0;129.8;10.76;-58.57;278.96;-9.49;-0.17;8.0;1002.69;62.416;44.567577;-123.2747;51.93;NaN;;53.64;6.068;177.0;12 / 21;250519;2018-03-07 17:35:26:976
0.1292;1.3161;10.5858;0.0137;1.5547;9.6826;0.0459;-0.4205;0.5055;0.0203;0.0031;-0.0082;560.0;130.7;10.79;-58.01;278.69;-9.15;-0.1;8.0;1002.7;62.416;44.567577;-123.2747;51.72;NaN;;53.5;6.068;176.5;12 / 21;251020;2018-03-07 17:35:27:477
0.3111;1.4716;9.8895;0.0927;1.6403;9.6681;0.1904;-0.0505;-0.0136;0.0015;-0.0102;-0.0072;559.0;130.26;10.28;-58.63;278.5;-9.6;-0.5;8.0;1002.72;62.416;44.567577;-123.2747;51.72;NaN;;53.5;6.068;176.5;12 / 21;251520;2018-03-07 17:35:27:977
